idx,t,px,py,pz,vx,vy,vz,ax,ay,az,yaw,mode,ledr,ledg,ledb
0,0.0,0,0,-0.0,0.0,0.0,-1.5,0,0,0,0,10,0,0,0
1,0.05,0,0,-0.07500000000000001,0.0,0.0,-1.5,0,0,0,0,10,0,0,0
2,0.1,0,0,-0.15000000000000002,0.0,0.0,-1.5,0,0,0,0,10,0,0,0
3,0.15000000000000002,0,0,-0.22500000000000003,0.0,0.0,-1.5,0,0,0,0,10,0,0,0
4,0.2,0,0,-0.30000000000000004,0.0,0.0,-1.5,0,0,0,0,10,0,0,0
5,0.25,0,0,-0.375,0.0,0.0,-1.5,0,0,0,0,10,0,0,0
6,0.30000000000000004,0,0,-0.45000000000000007,0.0,0.0,-1.5,0,0,0,0,10,0,0,0
7,0.35000000000000003,0,0,-0.525,0.0,0.0,-1.5,0,0,0,0,10,0,0,0
8,0.4,0,0,-0.6000000000000001,0.0,0.0,-1.5,0,0,0,0,10,0,0,0
9,0.45,0,0,-0.675,0.0,0.0,-1.5,0,0,0,0,10,0,0,0
10,0.5,0,0,-0.75,0.0,0.0,-1.5,0,0,0,0,10,0,0,0
11,0.55,0,0,-0.8250000000000001,0.0,0.0,-1.5,0,0,0,0,10,0,0,0
12,0.6000000000000001,0,0,-0.9000000000000001,0.0,0.0,-1.5,0,0,0,0,10,0,0,0
13,0.65,0,0,-0.9750000000000001,0.0,0.0,-1.5,0,0,0,0,10,0,0,0
14,0.7000000000000001,0,0,-1.05,0.0,0.0,-1.5,0,0,0,0,10,0,0,0
15,0.75,0,0,-1.125,0.0,0.0,-1.5,0,0,0,0,10,0,0,0
16,0.8,0,0,-1.2000000000000002,0.0,0.0,-1.5,0,0,0,0,10,0,0,0
17,0.8500000000000001,0,0,-1.2750000000000001,0.0,0.0,-1.5,0,0,0,0,10,0,0,0
18,0.9,0,0,-1.35,0.0,0.0,-1.5,0,0,0,0,10,0,0,0
19,0.9500000000000001,0,0,-1.425,0.0,0.0,-1.5,0,0,0,0,10,0,0,0
20,1.0,0,0,-1.5,0.0,0.0,-1.5,0,0,0,0,10,0,0,0
21,1.05,0,0,-1.5750000000000002,0.0,0.0,-1.5,0,0,0,0,10,0,0,0
22,1.1,0,0,-1.6500000000000001,0.0,0.0,-1.5,0,0,0,0,10,0,0,0
23,1.1500000000000001,0,0,-1.725,0.0,0.0,-1.5,0,0,0,0,10,0,0,0
24,1.2000000000000002,0,0,-1.8000000000000003,0.0,0.0,-1.5,0,0,0,0,10,0,0,0
25,1.25,0,0,-1.875,0.0,0.0,-1.5,0,0,0,0,10,0,0,0
26,1.3,0,0,-1.9500000000000002,0.0,0.0,-1.5,0,0,0,0,10,0,0,0
27,1.35,0,0,-2.0250000000000004,0.0,0.0,-1.5,0,0,0,0,10,0,0,0
28,1.4000000000000001,0,0,-2.1,0.0,0.0,-1.5,0,0,0,0,10,0,0,0
29,1.4500000000000002,0,0,-2.1750000000000003,0.0,0.0,-1.5,0,0,0,0,10,0,0,0
30,1.5,0,0,-2.25,0.0,0.0,-1.5,0,0,0,0,10,0,0,0
31,1.55,0,0,-2.325,0.0,0.0,-1.5,0,0,0,0,10,0,0,0
32,1.6,0,0,-2.4000000000000004,0.0,0.0,-1.5,0,0,0,0,10,0,0,0
33,1.6500000000000001,0,0,-2.475,0.0,0.0,-1.5,0,0,0,0,10,0,0,0
34,1.7000000000000002,0,0,-2.5500000000000003,0.0,0.0,-1.5,0,0,0,0,10,0,0,0
35,1.75,0,0,-2.625,0.0,0.0,-1.5,0,0,0,0,10,0,0,0
36,1.8,0,0,-2.7,0.0,0.0,-1.5,0,0,0,0,10,0,0,0
37,1.85,0,0,-2.7750000000000004,0.0,0.0,-1.5,0,0,0,0,10,0,0,0
38,1.9000000000000001,0,0,-2.85,0.0,0.0,-1.5,0,0,0,0,10,0,0,0
39,1.9500000000000002,0,0,-2.9250000000000003,0.0,0.0,-1.5,0,0,0,0,10,0,0,0
40,2.0,0,0,-3.0,0.0,0.0,-1.5,0,0,0,0,10,0,0,0
41,2.0500000000000003,0,0,-3.075,0.0,0.0,-1.5,0,0,0,0,10,0,0,0
42,2.1,0,0,-3.1500000000000004,0.0,0.0,-1.5,0,0,0,0,10,0,0,0
43,2.15,0,0,-3.2249999999999996,0.0,0.0,-1.5,0,0,0,0,10,0,0,0
44,2.2,0,0,-3.3000000000000003,0.0,0.0,-1.5,0,0,0,0,10,0,0,0
45,2.25,0,0,-3.375,0.0,0.0,-1.5,0,0,0,0,10,0,0,0
45,2.25,0,0,-3.375,0,0,0,0,0,0,0,20,0,0,0
46,2.3,0,0,-3.375,0,0,0,0,0,0,0,20,0,0,0
47,2.35,0,0,-3.375,0,0,0,0,0,0,0,20,0,0,0
48,2.4,0,0,-3.375,0,0,0,0,0,0,0,20,0,0,0
49,2.45,0,0,-3.375,0,0,0,0,0,0,0,20,0,0,0
50,2.5,0,0,-3.375,0,0,0,0,0,0,0,20,0,0,0
51,2.55,0,0,-3.375,0,0,0,0,0,0,0,20,0,0,0
52,2.6,0,0,-3.375,0,0,0,0,0,0,0,20,0,0,0
53,2.65,0,0,-3.375,0,0,0,0,0,0,0,20,0,0,0
54,2.7,0,0,-3.375,0,0,0,0,0,0,0,20,0,0,0
55,2.75,0,0,-3.375,0,0,0,0,0,0,0,20,0,0,0
56,2.8,0,0,-3.375,0,0,0,0,0,0,0,20,0,0,0
57,2.85,0,0,-3.375,0,0,0,0,0,0,0,20,0,0,0
58,2.9,0,0,-3.375,0,0,0,0,0,0,0,20,0,0,0
59,2.95,0,0,-3.375,0,0,0,0,0,0,0,20,0,0,0
60,3.0,0,0,-3.375,0,0,0,0,0,0,0,20,0,0,0
61,3.05,0,0,-3.375,0,0,0,0,0,0,0,20,0,0,0
62,3.1,0,0,-3.375,0,0,0,0,0,0,0,20,0,0,0
63,3.15,0,0,-3.375,0,0,0,0,0,0,0,20,0,0,0
64,3.2,0,0,-3.375,0,0,0,0,0,0,0,20,0,0,0
65,3.25,0,0,-3.375,0,0,0,0,0,0,0,20,0,0,0
66,3.3,0,0,-3.375,0,0,0,0,0,0,0,20,0,0,0
67,3.35,0,0,-3.375,0,0,0,0,0,0,0,20,0,0,0
68,3.4000000000000004,0,0,-3.375,0,0,0,0,0,0,0,20,0,0,0
69,3.45,0,0,-3.375,0,0,0,0,0,0,0,20,0,0,0
70,3.5,0,0,-3.375,0,0,0,0,0,0,0,20,0,0,0
71,3.55,0,0,-3.375,0,0,0,0,0,0,0,20,0,0,0
72,3.6,0,0,-3.375,0,0,0,0,0,0,0,20,0,0,0
73,3.6500000000000004,0,0,-3.375,0,0,0,0,0,0,0,20,0,0,0
74,3.7,0,0,-3.375,0,0,0,0,0,0,0,20,0,0,0
75,3.75,0,0,-3.375,0,0,0,0,0,0,0,20,0,0,0
76,3.8,0,0,-3.375,0,0,0,0,0,0,0,20,0,0,0
77,3.85,0,0,-3.375,0,0,0,0,0,0,0,20,0,0,0
78,3.9000000000000004,0,0,-3.375,0,0,0,0,0,0,0,20,0,0,0
79,3.95,0,0,-3.375,0,0,0,0,0,0,0,20,0,0,0
80,4.0,0,0,-3.375,0,0,0,0,0,0,0,20,0,0,0
81,4.05,0,0,-3.375,0,0,0,0,0,0,0,20,0,0,0
82,4.1,0,0,-3.375,0,0,0,0,0,0,0,20,0,0,0
83,4.15,0,0,-3.375,0,0,0,0,0,0,0,20,0,0,0
84,4.2,0,0,-3.375,0,0,0,0,0,0,0,20,0,0,0
85,4.25,0.0,0.0,-3.375,0.0,0.0,-2.5,0,0,0,0,30,0,0,0
86,4.3,0,0,-3.5,0,0,0,0,0,0,0,40,0,0,0
87,4.35,0,0,-3.5,0,0,0,0,0,0,0,40,0,0,0
88,4.3999999999999995,0,0,-3.5,0,0,0,0,0,0,0,40,0,0,0
89,4.45,0,0,-3.5,0,0,0,0,0,0,0,40,0,0,0
90,4.5,0,0,-3.5,0,0,0,0,0,0,0,40,0,0,0
91,4.55,0,0,-3.5,0,0,0,0,0,0,0,40,0,0,0
92,4.6,0,0,-3.5,0,0,0,0,0,0,0,40,0,0,0
93,4.6499999999999995,0,0,-3.5,0,0,0,0,0,0,0,40,0,0,0
94,4.7,0,0,-3.5,0,0,0,0,0,0,0,40,0,0,0
95,4.75,0,0,-3.5,0,0,0,0,0,0,0,40,0,0,0
96,4.8,0,0,-3.5,0,0,0,0,0,0,0,40,0,0,0
97,4.85,0,0,-3.5,0,0,0,0,0,0,0,40,0,0,0
98,4.9,0,0,-3.5,0,0,0,0,0,0,0,40,0,0,0
99,4.95,0,0,-3.5,0,0,0,0,0,0,0,40,0,0,0
100,5.0,0,0,-3.5,0,0,0,0,0,0,0,40,0,0,0
101,5.05,0,0,-3.5,0,0,0,0,0,0,0,40,0,0,0
102,5.1,0,0,-3.5,0,0,0,0,0,0,0,40,0,0,0
103,5.15,0,0,-3.5,0,0,0,0,0,0,0,40,0,0,0
104,5.2,0,0,-3.5,0,0,0,0,0,0,0,40,0,0,0
105,5.25,0,0,-3.5,0,0,0,0,0,0,0,40,0,0,0
106,5.3,0,0,-3.5,0,0,0,0,0,0,0,40,0,0,0
107,5.35,0,0,-3.5,0,0,0,0,0,0,0,40,0,0,0
108,5.4,0,0,-3.5,0,0,0,0,0,0,0,40,0,0,0
109,5.45,0,0,-3.5,0,0,0,0,0,0,0,40,0,0,0
110,5.5,0,0,-3.5,0,0,0,0,0,0,0,40,0,0,0
111,5.55,0,0,-3.5,0,0,0,0,0,0,0,40,0,0,0
112,5.6,0,0,-3.5,0,0,0,0,0,0,0,40,0,0,0
113,5.65,0,0,-3.5,0,0,0,0,0,0,0,40,0,0,0
114,5.7,0,0,-3.5,0,0,0,0,0,0,0,40,0,0,0
115,5.75,0,0,-3.5,0,0,0,0,0,0,0,40,0,0,0
116,5.8,0,0,-3.5,0,0,0,0,0,0,0,40,0,0,0
117,5.85,0,0,-3.5,0,0,0,0,0,0,0,40,0,0,0
118,5.9,0,0,-3.5,0,0,0,0,0,0,0,40,0,0,0
119,5.95,0,0,-3.5,0,0,0,0,0,0,0,40,0,0,0
120,6.0,0,0,-3.5,0,0,0,0,0,0,0,40,0,0,0
121,6.05,0,0,-3.5,0,0,0,0,0,0,0,40,0,0,0
122,6.1,0,0,-3.5,0,0,0,0,0,0,0,40,0,0,0
123,6.15,0,0,-3.5,0,0,0,0,0,0,0,40,0,0,0
124,6.2,0,0,-3.5,0,0,0,0,0,0,0,40,0,0,0
125,6.25,0,0,-3.5,0,0,0,0,0,0,0,40,0,0,0
126,6.3,0.0,0.0,-3.5,2.5,0.0,0.0,0,0,0,0,50,0,0,0
127,6.35,0.125,0.0,-3.5,2.5,0.0,0.0,0,0,0,0,50,0,0,0
128,6.3999999999999995,0.25,0.0,-3.5,2.5,0.0,0.0,0,0,0,0,50,0,0,0
129,6.45,0.375,0.0,-3.5,2.5,0.0,0.0,0,0,0,0,50,0,0,0
130,6.5,0.5,0.0,-3.5,2.5,0.0,0.0,0,0,0,0,50,0,0,0
131,6.55,0.625,0.0,-3.5,2.5,0.0,0.0,0,0,0,0,50,0,0,0
132,6.6,0.75,0.0,-3.5,2.5,0.0,0.0,0,0,0,0,50,0,0,0
133,6.6499999999999995,0.875,0.0,-3.5,2.5,0.0,0.0,0,0,0,0,50,0,0,0
134,6.7,1.0,0.0,-3.5,2.5,0.0,0.0,0,0,0,0,50,0,0,0
135,6.75,1.125,0.0,-3.5,2.5,0.0,0.0,0,0,0,0,50,0,0,0
136,6.8,1.25,0.0,-3.5,2.5,0.0,0.0,0,0,0,0,50,0,0,0
137,6.85,1.375,0.0,-3.5,2.5,0.0,0.0,0,0,0,0,50,0,0,0
138,6.9,1.5,0.0,-3.5,2.5,0.0,0.0,0,0,0,0,50,0,0,0
139,6.95,1.625,0.0,-3.5,2.5,0.0,0.0,0,0,0,0,50,0,0,0
140,7.0,1.75,0.0,-3.5,2.5,0.0,0.0,0,0,0,0,50,0,0,0
141,7.05,1.875,0.0,-3.5,2.5,0.0,0.0,0,0,0,0,50,0,0,0
142,7.1,2.0,0.0,-3.5,2.5,0.0,0.0,0,0,0,0,50,0,0,0
143,7.15,2.125,0.0,-3.5,2.5,0.0,0.0,0,0,0,0,50,0,0,0
144,7.2,2.25,0.0,-3.5,2.5,0.0,0.0,0,0,0,0,50,0,0,0
145,7.25,2.375,0.0,-3.5,2.5,0.0,0.0,0,0,0,0,50,0,0,0
146,7.3,2.5,0.0,-3.5,2.5,0.0,0.0,0,0,0,0,50,0,0,0
147,7.35,2.625,0.0,-3.5,2.5,0.0,0.0,0,0,0,0,50,0,0,0
148,7.4,2.75,0.0,-3.5,2.5,0.0,0.0,0,0,0,0,50,0,0,0
149,7.45,2.875,0.0,-3.5,2.5,0.0,0.0,0,0,0,0,50,0,0,0
150,7.5,3.0,0.0,-3.5,2.5,0.0,0.0,0,0,0,0,50,0,0,0
151,7.55,3.125,0.0,-3.5,2.5,0.0,0.0,0,0,0,0,50,0,0,0
152,7.6,3.25,0.0,-3.5,2.5,0.0,0.0,0,0,0,0,50,0,0,0
153,7.65,3.375,0.0,-3.5,2.5,0.0,0.0,0,0,0,0,50,0,0,0
154,7.7,3.5,0.0,-3.5,2.5,0.0,0.0,0,0,0,0,50,0,0,0
155,7.75,3.625,0.0,-3.5,2.5,0.0,0.0,0,0,0,0,50,0,0,0
156,7.8,3.75,0.0,-3.5,2.5,0.0,0.0,0,0,0,0,50,0,0,0
157,7.85,3.875,0.0,-3.5,2.5,0.0,0.0,0,0,0,0,50,0,0,0
158,7.9,4.0,0.0,-3.5,0,0,0,0,0,0,0,60,0,0,0
159,7.95,4.0,0.0,-3.5,0,0,0,0,0,0,0,60,0,0,0
160,8.0,4.0,0.0,-3.5,0,0,0,0,0,0,0,60,0,0,0
161,8.05,4.0,0.0,-3.5,0,0,0,0,0,0,0,60,0,0,0
162,8.1,4.0,0.0,-3.5,0,0,0,0,0,0,0,60,0,0,0
163,8.15,4.0,0.0,-3.5,0,0,0,0,0,0,0,60,0,0,0
164,8.200000000000001,4.0,0.0,-3.5,0,0,0,0,0,0,0,60,0,0,0
165,8.25,4.0,0.0,-3.5,0,0,0,0,0,0,0,60,0,0,0
166,8.3,4.0,0.0,-3.5,0,0,0,0,0,0,0,60,0,0,0
167,8.35,4.0,0.0,-3.5,0,0,0,0,0,0,0,60,0,0,0
168,8.4,4.0,0.0,-3.5,0,0,0,0,0,0,0,60,0,0,0
169,8.450000000000001,4.0,0.0,-3.5,0,0,0,0,0,0,0,60,0,0,0
170,8.5,4.0,0.0,-3.5,0,0,0,0,0,0,0,60,0,0,0
171,8.55,4.0,0.0,-3.5,0,0,0,0,0,0,0,60,0,0,0
172,8.6,4.0,0.0,-3.5,0,0,0,0,0,0,0,60,0,0,0
173,8.65,4.0,0.0,-3.5,0,0,0,0,0,0,0,60,0,0,0
174,8.700000000000001,4.0,0.0,-3.5,0,0,0,0,0,0,0,60,0,0,0
175,8.75,4.0,0.0,-3.5,0,0,0,0,0,0,0,60,0,0,0
176,8.8,4.0,0.0,-3.5,0,0,0,0,0,0,0,60,0,0,0
177,8.85,4.0,0.0,-3.5,0,0,0,0,0,0,0,60,0,0,0
178,8.9,4.0,0.0,-3.5,0,0,0,0,0,0,0,60,0,0,0
179,8.950000000000001,4.0,0.0,-3.5,0,0,0,0,0,0,0,60,0,0,0
180,9.0,4.0,0.0,-3.5,0,0,0,0,0,0,0,60,0,0,0
181,9.05,4.0,0.0,-3.5,0,0,0,0,0,0,0,60,0,0,0
182,9.100000000000001,4.0,0.0,-3.5,0,0,0,0,0,0,0,60,0,0,0
183,9.15,4.0,0.0,-3.5,0,0,0,0,0,0,0,60,0,0,0
184,9.200000000000001,4.0,0.0,-3.5,0,0,0,0,0,0,0,60,0,0,0
185,9.25,4.0,0.0,-3.5,0,0,0,0,0,0,0,60,0,0,0
186,9.3,4.0,0.0,-3.5,0,0,0,0,0,0,0,60,0,0,0
187,9.350000000000001,4.0,0.0,-3.5,0,0,0,0,0,0,0,60,0,0,0
188,9.4,4.0,0.0,-3.5,0,0,0,0,0,0,0,60,0,0,0
189,9.450000000000001,4.0,0.0,-3.5,0,0,0,0,0,0,0,60,0,0,0
190,9.5,4.0,0.0,-3.5,0,0,0,0,0,0,0,60,0,0,0
191,9.55,4.0,0.0,-3.5,0,0,0,0,0,0,0,60,0,0,0
192,9.600000000000001,4.0,0.0,-3.5,0,0,0,0,0,0,0,60,0,0,0
193,9.65,4.0,0.0,-3.5,0,0,0,0,0,0,0,60,0,0,0
194,9.700000000000001,4.0,0.0,-3.5,0,0,0,0,0,0,0,60,0,0,0
195,9.75,4.0,0.0,-3.5,0,0,0,0,0,0,0,60,0,0,0
196,9.8,4.0,0.0,-3.5,0,0,0,0,0,0,0,60,0,0,0
197,9.850000000000001,4.0,0.0,-3.5,0,0,0,0,0,0,0,60,0,0,0
198,9.9,4.0,0.0,-3.5,-0.0,0.8377580409572781,0,-0.17545963379714413,-0.0,0,0,70,0,0,0
199,9.950000000000001,3.9997806774620486,0.04188713646498317,-3.5,-0.008772821346553616,0.8377121061523451,0,-0.17545001323409604,-0.0018373754062392374,0,0,70,0,0,0
200,10.0,3.999122733899382,0.08376967953342783,-3.5,-0.017544680654385872,0.8375743067748151,0,-0.17542115259995486,-0.0036745493235598417,0,0,70,0,0,0
201,10.05,3.9980262414629264,0.12564303631251317,-3.5,-0.026314615990273797,0.8373446579359427,0,-0.1753730550596144,-0.005511320285138711,0,0,70,0,0,0
202,10.1,3.9964913203954335,0.1675026149167985,-3.5,-0.03508166563197961,0.837023184819311,0,-0.17530572588751195,-0.007347486868341379,0,0,70,0,0,0
203,10.15,3.994518139018295,0.2093438249717753,-3.5,-0.043844868173714455,0.8366099226780699,0,-0.17521917246704996,-0.009182847716810282,0,0,70,0,0,0
204,10.200000000000001,3.9921069137130862,0.2511620781172535,-3.5,-0.05260326263156729,0.8361049168310702,0,-0.17511340428978636,-0.011017201562545752,0,0,70,0,0,0
205,10.25,3.989257908897832,0.29295278851052675,-3.5,-0.061355888548887676,0.835508222657894,0,-0.17498843295439367,-0.012850347247977309,0,0,70,0,0,0
206,10.3,3.9859714369980175,0.33471137332926193,-3.5,-0.07010178610161066,0.8348199055927814,0,-0.17484427216538714,-0.014682083748022875,0,0,70,0,0,0
207,10.35,3.98224785841232,0.37643325327405724,-3.5,-0.07883999620351227,0.8340400411174554,0,-0.1746809377316218,-0.016512210192133423,0,0,70,0,0,0
208,10.4,3.978087581473093,0.41811385307061383,-3.5,-0.08756956061138417,0.8331687147528438,0,-0.17449844756455893,-0.018340525886320708,0,0,70,0,0,0
209,10.450000000000001,3.9734910624015853,0.45974860197146644,-3.5,-0.0962895220301158,0.8322060220497016,0,-0.17429682167630187,-0.02016683033516562,0,0,70,0,0,0
210,10.5,3.968458805257912,0.501332934257217,-3.5,-0.10499892421767251,0.8311520685781322,0,-0.1740760821774013,-0.02199092326380476,0,0,70,0,0,0
211,10.55,3.9629913618857744,0.5428622897372175,-3.5,-0.11369681208995842,0.8300069699160105,0,-0.1738362532744309,-0.023812604639892838,0,0,70,0,0,0
212,10.6,3.9570893318519538,0.5843321142496465,-3.5,-0.12238223182555207,0.8287708516363093,0,-0.17357736126733236,-0.02563167469553849,0,0,70,0,0,0
213,10.65,3.950753362380551,0.6257378601609235,-3.5,-0.13105423097030364,0.8274438492933276,0,-0.17329943454653185,-0.027447933949211058,0,0,70,0,0,0
214,10.700000000000001,3.94398414828202,0.667074986864409,-3.5,-0.13971185854178234,0.8260261084078261,0,-0.17300250358982616,-0.029261183227615988,0,0,70,0,0,0
215,10.75,3.936782431876967,0.7083389612783333,-3.5,-0.14835416513356245,0.8245177844510694,0,-0.17268660095904084,-0.031071223687536453,0,0,70,0,0,0
216,10.8,3.9291490029147553,0.7495252583428984,-3.5,-0.15698020301933607,0.8229190428277771,0,-0.17235176129645924,-0.0328778568376387,0,0,70,0,0,0
217,10.85,3.9210846984868875,0.7906293615165046,-3.5,-0.16558902625684266,0.8212300588579836,0,-0.17199802132102365,-0.03468088456023895,0,0,70,0,0,0
218,10.9,3.9125904029352228,0.8316467632710373,-3.5,-0.17417969079160137,0.819451017757815,0,-0.1716254198243087,-0.03648010913302911,0,0,70,0,0,0
219,10.950000000000001,3.9036670477549897,0.8725729655861701,-3.5,-0.18275125456043811,0.8175821146191755,0,-0.17123399766626732,-0.03827533325075937,0,0,70,0,0,0
220,11.0,3.894315611492641,0.913403480442623,-3.5,-0.19130277759479283,0.8156235543883549,0,-0.17082379777075007,-0.04006636004687489,0,0,70,0,0,0
221,11.05,3.8845371196385443,0.9541338303143236,-3.5,-0.19983332212379795,0.8135755518435538,0,-0.17039486512079802,-0.041852993115104424,0,0,70,0,0,0
222,11.100000000000001,3.8743326445145243,0.9947595486594192,-3.5,-0.2083419526771153,0.8114383315713296,0,-0.16994724675370987,-0.04363503653099852,0,0,70,0,0,0
223,11.15,3.863703305156273,1.035276180410083,-3.5,-0.2168277361875212,0.8092121279419701,0,-0.1694809917558838,-0.045412294873414825,0,0,70,0,0,0
224,11.200000000000001,3.852650267190633,1.0756792824610628,-3.5,-0.22528974209322766,0.8068971850837897,0,-0.1689961512574345,-0.047184573245948214,0,0,70,0,0,0
225,11.25,3.8411747427077723,1.115964424156917,-3.5,-0.23372704243992898,0.80449375685636,0,-0.16849277842658628,-0.048951677298303374,0,0,70,0,0,0
226,11.3,3.8292779901282685,1.1561271877778865,-3.5,-0.24213871198256237,0.8020021068226705,0,-0.16797092846384257,-0.05071341324760752,0,0,70,0,0,0
227,11.350000000000001,3.8169613140651073,1.1961631690243468,-3.5,-0.2505238282867716,0.7994225082202255,0,-0.16743065859593245,-0.05246958789966084,0,0,70,0,0,0
228,11.4,3.8042260651806146,1.2360679774997896,-3.5,-0.25888147183006216,0.7967552439310814,0,-0.1668720280695353,-0.05422000867012242,0,0,70,0,0,0
229,11.450000000000001,3.791073640038343,1.27583723719228,-3.5,-0.2672107261026377,0.7940006064508248,0,-0.16629509814478347,-0.05596448360562939,0,0,70,0,0,0
230,11.5,3.777505480949925,1.315466586954333,-3.5,-0.2755106777079047,0.7911588978564974,0,-0.16569993208854464,-0.05770282140484658,0,0,70,0,0,0
231,11.55,3.7635230758169023,1.3549516809811655,-3.5,-0.283780416462638,0.7882304297734694,0,-0.16508659516748378,-0.05943483143944504,0,0,70,0,0,0
232,11.600000000000001,3.7491279579675663,1.394288189287261,-3.5,-0.2920190354967916,0.7852155233412671,0,-0.16445515464090596,-0.0611603237750065,0,0,70,0,0,0
233,11.65,3.7343217059888065,1.433471798181201,-3.5,-0.3002256313529475,0.782114509178356,0,-0.16380567975338067,-0.06287910919185181,0,0,70,0,0,0
234,11.700000000000001,3.7191059435530054,1.4724982107387117,-3.5,-0.3083993040853901,0.778927727345884,0,-0.16313824172714816,-0.06459099920579107,0,0,70,0,0,0
235,11.75,3.7034823392399794,1.5113631472738684,-3.5,-0.3165391573587956,0.7756555273103907,0,-0.16245291375430937,-0.06629580608879304,0,0,70,0,0,0
236,11.8,3.687452606354002,1.550062345808412,-3.5,-0.32464429854652455,0.7722982679054845,0,-0.16174977098879947,-0.06799334288957154,0,0,70,0,0,0
237,11.850000000000001,3.671018502735924,1.5885915625391227,-3.5,-0.3327138388285092,0.7688563172924922,0,-0.16102889053814642,-0.06968342345408687,0,0,70,0,0,0
238,11.9,3.654181830570403,1.6269465723032006,-3.5,-0.34074689328872204,0.7653300529200854,0,-0.16029035145501522,-0.07136586244595962,0,0,70,0,0,0
239,11.950000000000001,3.6369444361882746,1.6651231690416048,-3.5,-0.3487425810122174,0.7617198614828903,0,-0.15953423472853887,-0.07304047536679503,0,0,70,0,0,0
240,12.0,3.6193082098640783,1.7031171662602906,-3.5,-0.35670002518173305,0.758026138879081,0,-0.15876062327543713,-0.0747070785764151,0,0,70,0,0,0
241,12.05,3.6012750856087745,1.74092439748931,-3.5,-0.36461835317384356,0.7542492901669652,0,-0.1579696019309236,-0.07636548931299703,0,0,70,0,0,0
242,12.100000000000001,3.5828470409576516,1.77854071673971,-3.5,-0.3724966966546532,0.7503897295205657,0,-0.15716125743940276,-0.07801552571311494,0,0,70,0,0,0
243,12.15,3.564026096753471,1.815961998958187,-3.5,-0.3803341916750184,0.7464478801842008,0,-0.1563356784449573,-0.07965700683168334,0,0,70,0,0,0
244,12.200000000000001,3.5448143169248585,1.8531841404794471,-3.5,-0.3881299787652897,0.7424241744260704,0,-0.15549295548162734,-0.08128975266179977,0,0,70,0,0,0
245,12.25,3.525213808259969,1.8902030594762158,-3.5,-0.395883203029562,0.7383190534908545,0,-0.15463318096348252,-0.08291358415448456,0,0,70,0,0,0
246,12.3,3.505226720175454,1.9270146964068613,-3.5,-0.40359301423942406,0.7341329675513235,0,-0.15375644917448744,-0.08452832323831569,0,0,70,0,0,0
247,12.350000000000001,3.484855244480757,1.9636150144605635,-3.5,-0.4112585669271948,0.7298663756589739,0,-0.15286285625816273,-0.0861337928389561,0,0,70,0,0,0
248,12.4,3.4641016151377553,1.9999999999999998,-3.5,-0.418879020478639,0.7255197456936872,0,-0.1519525002070415,-0.08772981689857205,0,0,70,0,0,0
249,12.450000000000001,3.4429681080157746,2.0361656630014853,-3.5,-0.42645353922515045,0.7210935543124204,0,-0.1510254808519235,-0.08931622039513995,0,0,70,0,0,0
250,12.5,3.421457040642027,2.0721080374925207,-3.5,-0.4339812925353911,0.7165882868969377,0,-0.1500818998509276,-0.09089282936163919,0,0,70,0,0,0
251,12.55,3.399570771947456,2.1078231819867104,-3.5,-0.4414614549063807,0.7120044375005806,0,-0.14912186067834382,-0.09245947090512983,0,0,70,0,0,0
252,12.600000000000001,3.3773117020080603,2.1433071799159866,-3.5,-0.44889320605402133,0.7073425087940908,0,-0.14814546861328595,-0.09401597322571219,0,0,70,0,0,0
253,12.65,3.354682271781696,2.178556140060108,-3.5,-0.4562757310030514,0.7026030120104864,0,-0.147152830728147,-0.09556216563536661,0,0,70,0,0,0
254,12.700000000000001,3.3316849628403977,2.2135661969733764,-3.5,-0.4636082201764171,0.6977864668889985,0,-0.14614405587685697,-0.0970978785766714,0,0,70,0,0,0
255,12.75,3.308322297098247,2.2483335114085223,-3.5,-0.4708898694840505,0.6928934016180774,0,-0.14511925468294629,-0.09862294364139663,0,0,70,0,0,0
256,12.8,3.284596836534816,2.282854270737727,-3.5,-0.47811988041104847,0.6879243527774702,0,-0.14407853952741423,-0.10013719358897202,0,0,70,0,0,0
257,12.850000000000001,3.2605111829142164,2.3171246893707154,-3.5,-0.48529746010523805,0.682879865279378,0,-0.14302202453640545,-0.10164046236482678,0,0,70,0,0,0
258,12.9,3.23606797749979,2.3511410091698925,-3.5,-0.4924218214641218,0.6777604923087013,0,-0.14194982556869448,-0.10313258511859931,0,0,70,0,0,0
259,12.950000000000001,3.2112699007644583,2.3848994998624633,-3.5,-0.49949218322119243,0.6725667952623764,0,-0.1408620602029808,-0.104613398222215,0,0,70,0,0,0
260,13.0,3.186119672096785,2.4183964594494993,-3.5,-0.5065077700316075,0.6672993436878121,0,-0.13975884772499472,-0.10608273928782978,0,0,70,0,0,0
261,13.05,3.1606200495027608,2.451628214611906,-3.5,-0.513467812557215,0.6619587152204323,0,-0.13864030911441652,-0.10754044718563784,0,0,70,0,0,0
262,13.100000000000001,3.1347738293033593,2.484591121113241,-3.5,-0.5203715475509191,0.6565454955203318,0,-0.13750656703160968,-0.10898636206154128,0,0,70,0,0,0
263,13.15,3.1085838458278836,2.51728156419935,-3.5,-0.52721821794038,0.6510602782080525,0,-0.1363577458041696,-0.11042032535468004,0,0,70,0,0,0
264,13.200000000000001,3.082052971103157,2.5496959589947585,-3.5,-0.5340070729110344,0.6455036647994848,0,-0.13519397141329,-0.11184217981481964,0,0,70,0,0,0
265,13.25,3.0551841145385685,2.5818307508958025,-3.5,-0.5407373679884314,0.639876264639907,0,-0.13401537147994733,-0.1132517695195958,0,0,70,0,0,0
266,13.3,3.0279802226070256,2.613682415960422,-3.5,-0.5474083651198722,0.6341786948371612,0,-0.13282207525090595,-0.11464893989161265,0,0,70,0,0,0
267,13.350000000000001,3.0004442785218384,2.6452474612946073,-3.5,-0.5540193327553459,0.6284115801939822,0,-0.13161421358454453,-0.11603353771539425,0,0,70,0,0,0
268,13.4,2.972579301909577,2.676522425435433,-3.5,-0.5605695459277527,0.6225755531394802,0,-0.13039191893650617,-0.11740541115418628,0,0,70,0,0,0
269,13.450000000000001,2.9443883484789373,2.707503878730643,-3.5,-0.5670582863324038,0.6166712536597875,0,-0.1291553253451731,-0.11876440976660649,0,0,70,0,0,0
270,13.5,2.915874509685646,2.7381884237147545,-3.5,-0.5734848424057926,0.6106993292278777,0,-0.12790456841696768,-0.12011038452314254,0,0,70,0,0,0
271,13.55,2.8870409123934486,2.768572695481627,-3.5,-0.5798485094036248,0.6046604347325621,0,-0.12663978531148185,-0.12144318782249465,0,0,70,0,0,0
272,13.600000000000001,2.8578907185312135,2.7986533620534617,-3.5,-0.586148589478102,0.5985552324066744,0,-0.12536111472643596,-0.12276267350776165,0,0,70,0,0,0
273,13.65,2.82842712474619,2.82842712474619,-3.5,-0.5923843917544488,0.5923843917544488,0,-0.12406869688246897,-0.12406869688246895,0,0,70,0,0,0
274,13.700000000000001,2.7986533620534617,2.8578907185312135,-3.5,-0.5985552324066744,0.586148589478102,0,-0.12276267350776165,-0.12536111472643596,0,0,70,0,0,0
275,13.75,2.7685726954816268,2.8870409123934486,-3.5,-0.6046604347325621,0.5798485094036248,0,-0.12144318782249465,-0.12663978531148185,0,0,70,0,0,0
276,13.8,2.738188423714755,2.915874509685646,-3.5,-0.6106993292278777,0.5734848424057926,0,-0.12011038452314254,-0.12790456841696768,0,0,70,0,0,0
277,13.850000000000001,2.707503878730643,2.9443883484789373,-3.5,-0.6166712536597875,0.5670582863324038,0,-0.11876440976660649,-0.1291553253451731,0,0,70,0,0,0
278,13.9,2.676522425435433,2.9725793019095765,-3.5,-0.6225755531394801,0.5605695459277527,0,-0.11740541115418628,-0.13039191893650617,0,0,70,0,0,0
279,13.95,2.6452474612946073,3.000444278521838,-3.5,-0.6284115801939821,0.554019332755346,0,-0.11603353771539426,-0.1316142135845445,0,0,70,0,0,0
280,14.0,2.6136824159604215,3.027980222607026,-3.5,-0.6341786948371613,0.5474083651198722,0,-0.11464893989161264,-0.13282207525090595,0,0,70,0,0,0
281,14.05,2.5818307508958025,3.0551841145385685,-3.5,-0.639876264639907,0.5407373679884314,0,-0.1132517695195958,-0.13401537147994733,0,0,70,0,0,0
282,14.100000000000001,2.549695958994759,3.082052971103157,-3.5,-0.6455036647994848,0.5340070729110344,0,-0.11184217981481966,-0.13519397141329,0,0,70,0,0,0
283,14.15,2.51728156419935,3.1085838458278836,-3.5,-0.6510602782080525,0.52721821794038,0,-0.11042032535468004,-0.1363577458041696,0,0,70,0,0,0
284,14.2,2.484591121113241,3.1347738293033593,-3.5,-0.6565454955203318,0.5203715475509191,0,-0.10898636206154128,-0.13750656703160968,0,0,70,0,0,0
285,14.25,2.4516282146119064,3.1606200495027617,-3.5,-0.6619587152204323,0.513467812557215,0,-0.10754044718563784,-0.13864030911441652,0,0,70,0,0,0
286,14.3,2.4183964594494993,3.186119672096785,-3.5,-0.6672993436878121,0.5065077700316075,0,-0.10608273928782978,-0.13975884772499472,0,0,70,0,0,0
287,14.350000000000001,2.3848994998624633,3.2112699007644583,-3.5,-0.6725667952623764,0.4994921832211923,0,-0.10461339822221499,-0.1408620602029808,0,0,70,0,0,0
288,14.4,2.3511410091698925,3.23606797749979,-3.5,-0.6777604923087013,0.4924218214641218,0,-0.10313258511859931,-0.14194982556869448,0,0,70,0,0,0
289,14.45,2.317124689370716,3.2605111829142164,-3.5,-0.6828798652793779,0.48529746010523817,0,-0.1016404623648268,-0.14302202453640542,0,0,70,0,0,0
290,14.5,2.282854270737726,3.2845968365348166,-3.5,-0.6879243527774703,0.4781198804110484,0,-0.10013719358897201,-0.14407853952741426,0,0,70,0,0,0
291,14.55,2.2483335114085223,3.3083222970982473,-3.5,-0.6928934016180774,0.4708898694840505,0,-0.09862294364139663,-0.14511925468294629,0,0,70,0,0,0
292,14.600000000000001,2.2135661969733764,3.3316849628403977,-3.5,-0.6977864668889985,0.4636082201764171,0,-0.0970978785766714,-0.14614405587685697,0,0,70,0,0,0
293,14.65,2.178556140060109,3.3546822717816958,-3.5,-0.7026030120104862,0.45627573100305163,0,-0.09556216563536664,-0.14715283072814697,0,0,70,0,0,0
294,14.700000000000001,2.143307179915986,3.3773117020080603,-3.5,-0.7073425087940908,0.4488932060540213,0,-0.09401597322571217,-0.14814546861328595,0,0,70,0,0,0
295,14.75,2.10782318198671,3.399570771947456,-3.5,-0.7120044375005806,0.4414614549063806,0,-0.09245947090512982,-0.14912186067834382,0,0,70,0,0,0
296,14.8,2.072108037492521,3.421457040642027,-3.5,-0.7165882868969378,0.4339812925353911,0,-0.09089282936163919,-0.15008189985092762,0,0,70,0,0,0
297,14.850000000000001,2.0361656630014853,3.4429681080157746,-3.5,-0.7210935543124204,0.42645353922515034,0,-0.08931622039513994,-0.1510254808519235,0,0,70,0,0,0
298,14.9,2.0,3.4641016151377544,-3.5,-0.725519745693687,0.4188790204786392,0,-0.08772981689857208,-0.15195250020704149,0,0,70,0,0,0
299,14.950000000000001,1.9636150144605633,3.484855244480758,-3.5,-0.729866375658974,0.4112585669271946,0,-0.08613379283895606,-0.15286285625816276,0,0,70,0,0,0
300,15.0,1.9270146964068608,3.505226720175455,-3.5,-0.7341329675513236,0.4035930142394239,0,-0.08452832323831566,-0.15375644917448747,0,0,70,0,0,0
301,15.05,1.8902030594762156,3.525213808259969,-3.5,-0.7383190534908545,0.3958832030295619,0,-0.08291358415448455,-0.15463318096348252,0,0,70,0,0,0
302,15.100000000000001,1.8531841404794474,3.544814316924859,-3.5,-0.7424241744260704,0.3881299787652897,0,-0.08128975266179977,-0.15549295548162734,0,0,70,0,0,0
303,15.15,1.815961998958187,3.564026096753471,-3.5,-0.7464478801842007,0.3803341916750184,0,-0.07965700683168335,-0.15633567844495727,0,0,70,0,0,0
304,15.200000000000001,1.7785407167397098,3.5828470409576516,-3.5,-0.7503897295205657,0.3724966966546532,0,-0.07801552571311494,-0.15716125743940276,0,0,70,0,0,0
305,15.25,1.7409243974893087,3.6012750856087745,-3.5,-0.7542492901669653,0.36461835317384333,0,-0.076365489312997,-0.15796960193092363,0,0,70,0,0,0
306,15.3,1.7031171662602906,3.6193082098640783,-3.5,-0.758026138879081,0.35670002518173305,0,-0.0747070785764151,-0.15876062327543713,0,0,70,0,0,0
307,15.350000000000001,1.665123169041605,3.636944436188274,-3.5,-0.7617198614828903,0.3487425810122174,0,-0.07304047536679502,-0.15953423472853887,0,0,70,0,0,0
308,15.4,1.6269465723032015,3.6541818305704035,-3.5,-0.7653300529200854,0.3407468932887222,0,-0.07136586244595966,-0.16029035145501522,0,0,70,0,0,0
309,15.450000000000001,1.588591562539122,3.6710185027359246,-3.5,-0.7688563172924922,0.33271383882850913,0,-0.06968342345408685,-0.16102889053814642,0,0,70,0,0,0
310,15.5,1.5500623458084117,3.687452606354002,-3.5,-0.7722982679054845,0.32464429854652455,0,-0.06799334288957154,-0.16174977098879947,0,0,70,0,0,0
311,15.55,1.511363147273868,3.703482339239979,-3.5,-0.7756555273103907,0.31653915735879556,0,-0.06629580608879304,-0.16245291375430937,0,0,70,0,0,0
312,15.600000000000001,1.4724982107387117,3.719105943553006,-3.5,-0.778927727345884,0.30839930408539007,0,-0.06459099920579107,-0.16313824172714816,0,0,70,0,0,0
313,15.65,1.433471798181202,3.734321705988807,-3.5,-0.782114509178356,0.30022563135294755,0,-0.06287910919185184,-0.16380567975338067,0,0,70,0,0,0
314,15.700000000000001,1.394288189287261,3.7491279579675663,-3.5,-0.7852155233412673,0.2920190354967915,0,-0.06116032377500648,-0.164455154640906,0,0,70,0,0,0
315,15.75,1.3549516809811664,3.763523075816902,-3.5,-0.7882304297734694,0.28378041646263813,0,-0.059434831439445064,-0.16508659516748378,0,0,70,0,0,0
316,15.8,1.315466586954333,3.7775054809499244,-3.5,-0.7911588978564974,0.27551067770790466,0,-0.05770282140484656,-0.16569993208854464,0,0,70,0,0,0
317,15.850000000000001,1.2758372371922801,3.7910736400383427,-3.5,-0.7940006064508248,0.26721072610263774,0,-0.055964483605629396,-0.16629509814478347,0,0,70,0,0,0
318,15.9,1.2360679774997898,3.804226065180614,-3.5,-0.7967552439310814,0.2588814718300622,0,-0.05422000867012243,-0.1668720280695353,0,0,70,0,0,0
319,15.950000000000001,1.1961631690243468,3.8169613140651073,-3.5,-0.7994225082202255,0.2505238282867716,0,-0.05246958789966084,-0.16743065859593245,0,0,70,0,0,0
320,16.0,1.1561271877778863,3.829277990128269,-3.5,-0.8020021068226705,0.24213871198256237,0,-0.05071341324760752,-0.16797092846384257,0,0,70,0,0,0
321,16.05,1.1159644241569158,3.8411747427077727,-3.5,-0.8044937568563602,0.23372704243992878,0,-0.04895167729830334,-0.1684927784265863,0,0,70,0,0,0
322,16.1,1.0756792824610626,3.852650267190633,-3.5,-0.8068971850837897,0.22528974209322766,0,-0.047184573245948214,-0.1689961512574345,0,0,70,0,0,0
323,16.15,1.035276180410083,3.8637033051562732,-3.5,-0.8092121279419701,0.2168277361875212,0,-0.045412294873414825,-0.1694809917558838,0,0,70,0,0,0
324,16.200000000000003,0.9947595486594185,3.8743326445145243,-3.5,-0.8114383315713296,0.20834195267711528,0,-0.04363503653099851,-0.16994724675370987,0,0,70,0,0,0
325,16.25,0.9541338303143236,3.8845371196385443,-3.5,-0.8135755518435538,0.1998333221237979,0,-0.04185299311510441,-0.17039486512079802,0,0,70,0,0,0
326,16.3,0.9134034804426232,3.8943156114926407,-3.5,-0.8156235543883549,0.19130277759479294,0,-0.04006636004687491,-0.17082379777075005,0,0,70,0,0,0
327,16.35,0.87257296558617,3.9036670477549897,-3.5,-0.8175821146191755,0.18275125456043806,0,-0.03827533325075935,-0.17123399766626732,0,0,70,0,0,0
328,16.4,0.8316467632710367,3.9125904029352228,-3.5,-0.819451017757815,0.17417969079160128,0,-0.03648010913302909,-0.1716254198243087,0,0,70,0,0,0
329,16.450000000000003,0.7906293615165039,3.9210846984868875,-3.5,-0.8212300588579836,0.16558902625684258,0,-0.034680884560238934,-0.17199802132102365,0,0,70,0,0,0
330,16.5,0.7495252583428993,3.9291490029147544,-3.5,-0.822919042827777,0.1569802030193362,0,-0.032877856837638726,-0.1723517612964592,0,0,70,0,0,0
331,16.55,0.7083389612783337,3.9367824318769675,-3.5,-0.8245177844510694,0.1483541651335625,0,-0.031071223687536467,-0.17268660095904084,0,0,70,0,0,0
332,16.6,0.6670749868644084,3.94398414828202,-3.5,-0.8260261084078261,0.13971185854178222,0,-0.029261183227615964,-0.17300250358982616,0,0,70,0,0,0
333,16.65,0.6257378601609238,3.950753362380551,-3.5,-0.8274438492933276,0.13105423097030366,0,-0.027447933949211065,-0.17329943454653185,0,0,70,0,0,0
334,16.700000000000003,0.584332114249646,3.9570893318519533,-3.5,-0.8287708516363093,0.1223822318255519,0,-0.025631674695538457,-0.17357736126733236,0,0,70,0,0,0
335,16.75,0.5428622897372177,3.9629913618857744,-3.5,-0.8300069699160105,0.11369681208995844,0,-0.02381260463989284,-0.1738362532744309,0,0,70,0,0,0
336,16.8,0.501332934257217,3.9684588052579115,-3.5,-0.8311520685781322,0.10499892421767251,0,-0.02199092326380476,-0.1740760821774013,0,0,70,0,0,0
337,16.85,0.4597486019714676,3.973491062401586,-3.5,-0.8322060220497016,0.09628952203011597,0,-0.020166830335165663,-0.17429682167630187,0,0,70,0,0,0
338,16.9,0.4181138530706141,3.978087581473093,-3.5,-0.8331687147528438,0.08756956061138417,0,-0.018340525886320708,-0.17449844756455893,0,0,70,0,0,0
339,16.950000000000003,0.3764332532740573,3.98224785841232,-3.5,-0.8340400411174554,0.07883999620351226,0,-0.01651221019213342,-0.1746809377316218,0,0,70,0,0,0
340,17.0,0.33471137332926215,3.9859714369980175,-3.5,-0.8348199055927814,0.07010178610161062,0,-0.014682083748022866,-0.17484427216538714,0,0,70,0,0,0
341,17.05,0.29295278851052675,3.9892579088978324,-3.5,-0.835508222657894,0.061355888548887634,0,-0.0128503472479773,-0.17498843295439367,0,0,70,0,0,0
342,17.1,0.2511620781172539,3.9921069137130862,-3.5,-0.8361049168310702,0.05260326263156742,0,-0.01101720156254578,-0.17511340428978636,0,0,70,0,0,0
343,17.15,0.20934382497177495,3.9945181390182953,-3.5,-0.8366099226780699,0.04384486817371438,0,-0.009182847716810268,-0.17521917246704996,0,0,70,0,0,0
344,17.200000000000003,0.1675026149167982,3.9964913203954335,-3.5,-0.837023184819311,0.035081665631979536,0,-0.007347486868341363,-0.17530572588751195,0,0,70,0,0,0
345,17.25,0.12564303631251228,3.9980262414629264,-3.5,-0.8373446579359427,0.0263146159902737,0,-0.0055113202851386905,-0.1753730550596144,0,0,70,0,0,0
346,17.3,0.08376967953342795,3.999122733899382,-3.5,-0.8375743067748151,0.017544680654385955,0,-0.0036745493235598586,-0.17542115259995486,0,0,70,0,0,0
347,17.35,0.04188713646498332,3.9997806774620486,-3.5,-0.8377121061523451,0.008772821346553682,0,-0.0018373754062392508,-0.17545001323409604,0,0,70,0,0,0
348,17.4,8.881784197001252e-16,4.0,-3.5,-0.8377580409572781,2.3731753839304145e-16,0,-4.9703669012239506e-17,-0.17545963379714413,0,0,70,0,0,0
349,17.450000000000003,-0.041887136464983765,3.9997806774620486,-3.5,-0.8377121061523451,-0.008772821346553767,0,0.0018373754062392686,-0.17545001323409604,0,0,70,0,0,0
350,17.5,-0.08376967953342751,3.999122733899382,-3.5,-0.8375743067748151,-0.017544680654385848,0,0.003674549323559836,-0.17542115259995486,0,0,70,0,0,0
351,17.55,-0.12564303631251317,3.9980262414629264,-3.5,-0.8373446579359427,-0.026314615990273786,0,0.005511320285138708,-0.1753730550596144,0,0,70,0,0,0
352,17.6,-0.16750261491679863,3.9964913203954335,-3.5,-0.837023184819311,-0.03508166563197961,0,0.007347486868341379,-0.17530572588751195,0,0,70,0,0,0
353,17.65,-0.2093438249717745,3.9945181390182953,-3.5,-0.8366099226780699,-0.043844868173714274,0,0.009182847716810248,-0.17521917246704996,0,0,70,0,0,0
354,17.700000000000003,-0.25116207811725433,3.9921069137130862,-3.5,-0.8361049168310702,-0.0526032626315675,0,0.011017201562545795,-0.17511340428978636,0,0,70,0,0,0
355,17.75,-0.29295278851052675,3.9892579088978324,-3.5,-0.835508222657894,-0.06135588854888772,0,0.012850347247977317,-0.17498843295439367,0,0,70,0,0,0
356,17.8,-0.33471137332926215,3.9859714369980175,-3.5,-0.8348199055927814,-0.0701017861016107,0,0.014682083748022884,-0.17484427216538714,0,0,70,0,0,0
357,17.85,-0.3764332532740564,3.98224785841232,-3.5,-0.8340400411174554,-0.07883999620351216,0,0.016512210192133395,-0.1746809377316218,0,0,70,0,0,0
358,17.9,-0.4181138530706132,3.9780875814730936,-3.5,-0.8331687147528439,-0.08756956061138406,0,0.018340525886320687,-0.17449844756455896,0,0,70,0,0,0
359,17.950000000000003,-0.4597486019714667,3.973491062401586,-3.5,-0.8322060220497016,-0.09628952203011587,0,0.02016683033516564,-0.17429682167630187,0,0,70,0,0,0
360,18.0,-0.5013329342572166,3.9684588052579115,-3.5,-0.8311520685781322,-0.10499892421767242,0,0.02199092326380474,-0.1740760821774013,0,0,70,0,0,0
361,18.05,-0.5428622897372182,3.9629913618857744,-3.5,-0.8300069699160105,-0.11369681208995853,0,0.023812604639892862,-0.1738362532744309,0,0,70,0,0,0
362,18.1,-0.5843321142496469,3.9570893318519533,-3.5,-0.8287708516363093,-0.12238223182555218,0,0.025631674695538516,-0.17357736126733236,0,0,70,0,0,0
363,18.15,-0.6257378601609234,3.950753362380551,-3.5,-0.8274438492933276,-0.13105423097030358,0,0.027447933949211047,-0.17329943454653185,0,0,70,0,0,0
364,18.200000000000003,-0.6670749868644088,3.94398414828202,-3.5,-0.8260261084078261,-0.1397118585417823,0,0.02926118322761598,-0.17300250358982616,0,0,70,0,0,0
365,18.25,-0.7083389612783328,3.936782431876968,-3.5,-0.8245177844510695,-0.1483541651335624,0,0.031071223687536446,-0.17268660095904084,0,0,70,0,0,0
366,18.3,-0.7495252583428984,3.929149002914755,-3.5,-0.8229190428277771,-0.15698020301933607,0,0.0328778568376387,-0.17235176129645924,0,0,70,0,0,0
367,18.35,-0.7906293615165056,3.921084698486887,-3.5,-0.8212300588579835,-0.1655890262568428,0,0.03468088456023898,-0.17199802132102365,0,0,70,0,0,0
368,18.4,-0.8316467632710376,3.9125904029352228,-3.5,-0.819451017757815,-0.1741796907916014,0,0.03648010913302911,-0.1716254198243087,0,0,70,0,0,0
369,18.450000000000003,-0.87257296558617,3.9036670477549897,-3.5,-0.8175821146191755,-0.18275125456043811,0,0.03827533325075937,-0.17123399766626732,0,0,70,0,0,0
370,18.5,-0.9134034804426232,3.894315611492641,-3.5,-0.8156235543883549,-0.19130277759479286,0,0.04006636004687489,-0.17082379777075007,0,0,70,0,0,0
371,18.55,-0.9541338303143236,3.8845371196385443,-3.5,-0.8135755518435538,-0.19983332212379798,0,0.041852993115104424,-0.17039486512079802,0,0,70,0,0,0
372,18.6,-0.9947595486594194,3.8743326445145243,-3.5,-0.8114383315713296,-0.20834195267711536,0,0.04363503653099853,-0.16994724675370987,0,0,70,0,0,0
373,18.65,-1.0352761804100825,3.8637033051562732,-3.5,-0.8092121279419701,-0.2168277361875211,0,0.0454122948734148,-0.1694809917558838,0,0,70,0,0,0
374,18.700000000000003,-1.0756792824610635,3.8526502671906324,-3.5,-0.8068971850837896,-0.22528974209322775,0,0.047184573245948234,-0.1689961512574345,0,0,70,0,0,0
375,18.75,-1.1159644241569158,3.8411747427077727,-3.5,-0.8044937568563602,-0.23372704243992867,0,0.04895167729830332,-0.1684927784265863,0,0,70,0,0,0
376,18.8,-1.1561271877778871,3.829277990128269,-3.5,-0.8020021068226705,-0.24213871198256245,0,0.05071341324760754,-0.16797092846384257,0,0,70,0,0,0
377,18.85,-1.1961631690243473,3.8169613140651073,-3.5,-0.7994225082202255,-0.25052382828677167,0,0.05246958789966085,-0.16743065859593245,0,0,70,0,0,0
378,18.9,-1.2360679774997894,3.8042260651806146,-3.5,-0.7967552439310815,-0.2588814718300621,0,0.05422000867012241,-0.1668720280695353,0,0,70,0,0,0
379,18.950000000000003,-1.2758372371922797,3.7910736400383427,-3.5,-0.7940006064508248,-0.26721072610263763,0,0.05596448360562938,-0.16629509814478347,0,0,70,0,0,0
380,19.0,-1.315466586954332,3.7775054809499244,-3.5,-0.7911588978564974,-0.27551067770790455,0,0.05770282140484654,-0.16569993208854464,0,0,70,0,0,0
381,19.05,-1.3549516809811664,3.763523075816902,-3.5,-0.7882304297734694,-0.28378041646263813,0,0.05943483143944507,-0.16508659516748378,0,0,70,0,0,0
382,19.1,-1.3942881892872618,3.749127957967566,-3.5,-0.7852155233412671,-0.29201903549679176,0,0.06116032377500653,-0.16445515464090596,0,0,70,0,0,0
383,19.15,-1.433471798181201,3.734321705988807,-3.5,-0.782114509178356,-0.3002256313529475,0,0.06287910919185181,-0.16380567975338067,0,0,70,0,0,0
384,19.200000000000003,-1.4724982107387117,3.7191059435530054,-3.5,-0.7789277273458839,-0.3083993040853902,0,0.0645909992057911,-0.16313824172714814,0,0,70,0,0,0
385,19.25,-1.511363147273868,3.7034823392399794,-3.5,-0.7756555273103908,-0.3165391573587954,0,0.06629580608879301,-0.1624529137543094,0,0,70,0,0,0
386,19.3,-1.5500623458084113,3.6874526063540025,-3.5,-0.7722982679054847,-0.32464429854652443,0,0.06799334288957151,-0.1617497709887995,0,0,70,0,0,0
387,19.35,-1.5885915625391234,3.671018502735924,-3.5,-0.768856317292492,-0.3327138388285094,0,0.0696834234540869,-0.16102889053814642,0,0,70,0,0,0
388,19.4,-1.6269465723032002,3.654181830570404,-3.5,-0.7653300529200855,-0.34074689328872193,0,0.07136586244595959,-0.16029035145501522,0,0,70,0,0,0
389,19.450000000000003,-1.665123169041606,3.6369444361882737,-3.5,-0.7617198614828902,-0.3487425810122176,0,0.07304047536679506,-0.15953423472853884,0,0,70,0,0,0
390,19.5,-1.7031171662602906,3.619308209864078,-3.5,-0.7580261388790809,-0.35670002518173305,0,0.07470707857641512,-0.1587606232754371,0,0,70,0,0,0
391,19.55,-1.7409243974893096,3.601275085608774,-3.5,-0.7542492901669652,-0.36461835317384345,0,0.07636548931299701,-0.1579696019309236,0,0,70,0,0,0
392,19.6,-1.7785407167397107,3.582847040957651,-3.5,-0.7503897295205657,-0.3724966966546533,0,0.07801552571311496,-0.15716125743940274,0,0,70,0,0,0
393,19.65,-1.815961998958187,3.5640260967534716,-3.5,-0.7464478801842008,-0.38033419167501836,0,0.07965700683168334,-0.1563356784449573,0,0,70,0,0,0
394,19.700000000000003,-1.8531841404794474,3.5448143169248585,-3.5,-0.7424241744260703,-0.3881299787652898,0,0.0812897526617998,-0.15549295548162734,0,0,70,0,0,0
395,19.75,-1.8902030594762174,3.525213808259968,-3.5,-0.7383190534908542,-0.39588320302956237,0,0.08291358415448465,-0.1546331809634825,0,0,70,0,0,0
396,19.8,-1.9270146964068617,3.505226720175454,-3.5,-0.7341329675513234,-0.4035930142394241,0,0.08452832323831572,-0.15375644917448744,0,0,70,0,0,0
397,19.85,-1.9636150144605633,3.484855244480758,-3.5,-0.729866375658974,-0.41125856692719476,0,0.08613379283895609,-0.15286285625816276,0,0,70,0,0,0
398,19.9,-1.9999999999999991,3.464101615137755,-3.5,-0.7255197456936872,-0.4188790204786389,0,0.08772981689857204,-0.1519525002070415,0,0,70,0,0,0
399,19.950000000000003,-2.0361656630014853,3.4429681080157746,-3.5,-0.7210935543124204,-0.42645353922515045,0,0.08931622039513995,-0.1510254808519235,0,0,70,0,0,0
400,20.0,-2.0721080374925216,3.421457040642026,-3.5,-0.7165882868969375,-0.4339812925353913,0,0.09089282936163921,-0.1500818998509276,0,0,70,0,0,0
401,20.05,-2.1078231819867104,3.3995707719474555,-3.5,-0.7120044375005805,-0.4414614549063807,0,0.09245947090512983,-0.1491218606783438,0,0,70,0,0,0
402,20.1,-2.1433071799159875,3.37731170200806,-3.5,-0.7073425087940907,-0.44889320605402155,0,0.09401597322571223,-0.14814546861328595,0,0,70,0,0,0
403,20.15,-2.178556140060107,3.354682271781697,-3.5,-0.7026030120104865,-0.45627573100305124,0,0.09556216563536656,-0.14715283072814705,0,0,70,0,0,0
404,20.200000000000003,-2.2135661969733773,3.3316849628403973,-3.5,-0.6977864668889983,-0.4636082201764173,0,0.09709787857667146,-0.14614405587685697,0,0,70,0,0,0
405,20.25,-2.248333511408524,3.308322297098246,-3.5,-0.6928934016180772,-0.4708898694840508,0,0.09862294364139672,-0.14511925468294623,0,0,70,0,0,0
406,20.3,-2.2828542707377264,3.2845968365348166,-3.5,-0.6879243527774703,-0.4781198804110484,0,0.10013719358897201,-0.14407853952741426,0,0,70,0,0,0
407,20.35,-2.317124689370716,3.260511182914217,-3.5,-0.682879865279378,-0.48529746010523817,0,0.1016404623648268,-0.14302202453640545,0,0,70,0,0,0
408,20.4,-2.351141009169892,3.23606797749979,-3.5,-0.6777604923087013,-0.4924218214641217,0,0.1031325851185993,-0.14194982556869448,0,0,70,0,0,0
409,20.450000000000003,-2.3848994998624637,3.211269900764458,-3.5,-0.6725667952623763,-0.49949218322119254,0,0.10461339822221502,-0.1408620602029808,0,0,70,0,0,0
410,20.5,-2.4183964594494993,3.1861196720967855,-3.5,-0.6672993436878122,-0.5065077700316075,0,0.10608273928782978,-0.13975884772499475,0,0,70,0,0,0
411,20.55,-2.4516282146119064,3.160620049502761,-3.5,-0.6619587152204323,-0.5134678125572151,0,0.10754044718563785,-0.13864030911441652,0,0,70,0,0,0
412,20.6,-2.4845911211132425,3.134773829303358,-3.5,-0.6565454955203316,-0.5203715475509194,0,0.10898636206154134,-0.1375065670316096,0,0,70,0,0,0
413,20.65,-2.517281564199349,3.108583845827884,-3.5,-0.6510602782080525,-0.5272182179403798,0,0.11042032535468,-0.13635774580416962,0,0,70,0,0,0
414,20.700000000000003,-2.549695958994759,3.082052971103157,-3.5,-0.6455036647994848,-0.5340070729110344,0,0.11184217981481966,-0.13519397141329,0,0,70,0,0,0
415,20.75,-2.581830750895803,3.055184114538568,-3.5,-0.6398762646399069,-0.5407373679884315,0,0.11325176951959581,-0.1340153714799473,0,0,70,0,0,0
416,20.8,-2.613682415960422,3.0279802226070256,-3.5,-0.6341786948371612,-0.5474083651198722,0,0.11464893989161265,-0.13282207525090595,0,0,70,0,0,0
417,20.85,-2.645247461294608,3.0004442785218375,-3.5,-0.6284115801939821,-0.5540193327553461,0,0.1160335377153943,-0.13161421358454448,0,0,70,0,0,0
418,20.9,-2.6765224254354316,2.972579301909578,-3.5,-0.6225755531394803,-0.5605695459277524,0,0.1174054111541862,-0.13039191893650623,0,0,70,0,0,0
419,20.950000000000003,-2.707503878730644,2.9443883484789364,-3.5,-0.6166712536597873,-0.5670582863324041,0,0.11876440976660653,-0.12915532534517304,0,0,70,0,0,0
420,21.0,-2.738188423714755,2.9158745096856458,-3.5,-0.6106993292278776,-0.5734848424057926,0,0.12011038452314256,-0.12790456841696765,0,0,70,0,0,0
421,21.05,-2.7685726954816268,2.887040912393449,-3.5,-0.6046604347325621,-0.5798485094036248,0,0.12144318782249462,-0.12663978531148187,0,0,70,0,0,0
422,21.1,-2.798653362053462,2.857890718531213,-3.5,-0.5985552324066743,-0.5861485894781021,0,0.12276267350776168,-0.12536111472643593,0,0,70,0,0,0
423,21.15,-2.82842712474619,2.8284271247461903,-3.5,-0.5923843917544488,-0.5923843917544488,0,0.12406869688246895,-0.12406869688246897,0,0,70,0,0,0
424,21.200000000000003,-2.857890718531214,2.7986533620534613,-3.5,-0.5861485894781019,-0.5985552324066744,0,0.125361114726436,-0.12276267350776164,0,0,70,0,0,0
425,21.25,-2.8870409123934486,2.768572695481627,-3.5,-0.5798485094036248,-0.6046604347325621,0,0.12663978531148185,-0.12144318782249465,0,0,70,0,0,0
426,21.3,-2.9158745096856467,2.738188423714754,-3.5,-0.5734848424057924,-0.6106993292278778,0,0.1279045684169677,-0.12011038452314253,0,0,70,0,0,0
427,21.35,-2.9443883484789386,2.7075038787306416,-3.5,-0.5670582863324036,-0.6166712536597878,0,0.12915532534517316,-0.11876440976660643,0,0,70,0,0,0
428,21.4,-2.972579301909576,2.6765224254354334,-3.5,-0.5605695459277528,-0.62257555313948,0,0.13039191893650615,-0.11740541115418629,0,0,70,0,0,0
429,21.450000000000003,-3.0004442785218384,2.6452474612946073,-3.5,-0.5540193327553459,-0.6284115801939822,0,0.13161421358454453,-0.11603353771539425,0,0,70,0,0,0
430,21.5,-3.0279802226070265,2.613682415960421,-3.5,-0.5474083651198721,-0.6341786948371614,0,0.13282207525090597,-0.11464893989161261,0,0,70,0,0,0
431,21.55,-3.055184114538569,2.581830750895802,-3.5,-0.5407373679884313,-0.6398762646399071,0,0.13401537147994735,-0.11325176951959579,0,0,70,0,0,0
432,21.6,-3.0820529711031566,2.5496959589947594,-3.5,-0.5340070729110346,-0.6455036647994847,0,0.13519397141328998,-0.11184217981481967,0,0,70,0,0,0
433,21.65,-3.1085838458278836,2.5172815641993496,-3.5,-0.52721821794038,-0.6510602782080525,0,0.1363577458041696,-0.11042032535468002,0,0,70,0,0,0
434,21.700000000000003,-3.13477382930336,2.4845911211132408,-3.5,-0.520371547550919,-0.6565454955203319,0,0.13750656703160968,-0.10898636206154126,0,0,70,0,0,0
435,21.75,-3.1606200495027617,2.4516282146119055,-3.5,-0.5134678125572149,-0.6619587152204323,0,0.13864030911441652,-0.10754044718563781,0,0,70,0,0,0
436,21.8,-3.186119672096785,2.4183964594494998,-3.5,-0.5065077700316076,-0.6672993436878121,0,0.13975884772499472,-0.1060827392878298,0,0,70,0,0,0
437,21.85,-3.2112699007644583,2.384899499862463,-3.5,-0.4994921832211923,-0.6725667952623764,0,0.1408620602029808,-0.10461339822221499,0,0,70,0,0,0
438,21.9,-3.2360679774997894,2.351141009169893,-3.5,-0.4924218214641219,-0.6777604923087013,0,0.14194982556869448,-0.10313258511859932,0,0,70,0,0,0
439,21.950000000000003,-3.2605111829142173,2.317124689370715,-3.5,-0.48529746010523794,-0.6828798652793782,0,0.14302202453640547,-0.10164046236482677,0,0,70,0,0,0
440,22.0,-3.284596836534816,2.282854270737727,-3.5,-0.47811988041104847,-0.6879243527774702,0,0.14407853952741423,-0.10013719358897202,0,0,70,0,0,0
441,22.05,-3.3083222970982478,2.248333511408522,-3.5,-0.47088986948405037,-0.6928934016180776,0,0.1451192546829463,-0.09862294364139661,0,0,70,0,0,0
442,22.1,-3.3316849628403977,2.2135661969733764,-3.5,-0.4636082201764171,-0.6977864668889985,0,0.14614405587685697,-0.0970978785766714,0,0,70,0,0,0
443,22.15,-3.3546822717816958,2.1785561400601092,-3.5,-0.4562757310030517,-0.7026030120104862,0,0.14715283072814697,-0.09556216563536665,0,0,70,0,0,0
444,22.200000000000003,-3.377311702008061,2.143307179915985,-3.5,-0.448893206054021,-0.7073425087940911,0,0.14814546861328598,-0.0940159732257121,0,0,70,0,0,0
445,22.25,-3.3995707719474564,2.1078231819867095,-3.5,-0.44146145490638056,-0.7120044375005807,0,0.14912186067834382,-0.09245947090512978,0,0,70,0,0,0
446,22.3,-3.4214570406420264,2.0721080374925207,-3.5,-0.4339812925353911,-0.7165882868969377,0,0.1500818998509276,-0.09089282936163919,0,0,70,0,0,0
447,22.35,-3.442968108015774,2.0361656630014857,-3.5,-0.4264535392251505,-0.7210935543124203,0,0.1510254808519235,-0.08931622039513998,0,0,70,0,0,0
448,22.4,-3.464101615137755,1.9999999999999998,-3.5,-0.418879020478639,-0.7255197456936872,0,0.1519525002070415,-0.08772981689857205,0,0,70,0,0,0
449,22.450000000000003,-3.4848552444807583,1.9636150144605624,-3.5,-0.41125856692719454,-0.7298663756589742,0,0.15286285625816276,-0.08613379283895604,0,0,70,0,0,0
450,22.5,-3.5052267201754543,1.9270146964068608,-3.5,-0.40359301423942395,-0.7341329675513235,0,0.15375644917448744,-0.08452832323831568,0,0,70,0,0,0
451,22.55,-3.5252138082599696,1.890203059476215,-3.5,-0.3958832030295618,-0.7383190534908546,0,0.15463318096348255,-0.08291358415448453,0,0,70,0,0,0
452,22.6,-3.544814316924859,1.8531841404794465,-3.5,-0.3881299787652896,-0.7424241744260704,0,0.15549295548162734,-0.08128975266179975,0,0,70,0,0,0
453,22.65,-3.564026096753471,1.8159619989581874,-3.5,-0.3803341916750185,-0.7464478801842007,0,0.15633567844495727,-0.07965700683168336,0,0,70,0,0,0
454,22.700000000000003,-3.5828470409576507,1.7785407167397111,-3.5,-0.3724966966546534,-0.7503897295205656,0,0.15716125743940274,-0.07801552571311499,0,0,70,0,0,0
455,22.75,-3.6012750856087745,1.7409243974893087,-3.5,-0.3646183531738433,-0.7542492901669653,0,0.15796960193092363,-0.07636548931299698,0,0,70,0,0,0
456,22.8,-3.6193082098640783,1.70311716626029,-3.5,-0.3567000251817329,-0.758026138879081,0,0.15876062327543713,-0.07470707857641508,0,0,70,0,0,0
457,22.85,-3.636944436188274,1.6651231690416048,-3.5,-0.3487425810122174,-0.7617198614828903,0,0.15953423472853887,-0.07304047536679503,0,0,70,0,0,0
458,22.9,-3.654181830570404,1.6269465723032002,-3.5,-0.34074689328872193,-0.7653300529200855,0,0.16029035145501522,-0.07136586244595959,0,0,70,0,0,0
459,22.950000000000003,-3.6710185027359246,1.5885915625391225,-3.5,-0.33271383882850913,-0.7688563172924922,0,0.16102889053814642,-0.06968342345408686,0,0,70,0,0,0
460,23.0,-3.6874526063540025,1.550062345808411,-3.5,-0.3246442985465244,-0.7722982679054847,0,0.1617497709887995,-0.0679933428895715,0,0,70,0,0,0
461,23.05,-3.703482339239979,1.5113631472738684,-3.5,-0.3165391573587956,-0.7756555273103907,0,0.16245291375430937,-0.06629580608879304,0,0,70,0,0,0
462,23.1,-3.7191059435530054,1.4724982107387126,-3.5,-0.3083993040853903,-0.7789277273458839,0,0.16313824172714814,-0.06459099920579112,0,0,70,0,0,0
463,23.15,-3.734321705988807,1.4334717981812009,-3.5,-0.3002256313529474,-0.782114509178356,0,0.16380567975338067,-0.0628791091918518,0,0,70,0,0,0
464,23.200000000000003,-3.749127957967566,1.3942881892872614,-3.5,-0.2920190354967917,-0.7852155233412671,0,0.16445515464090596,-0.06116032377500652,0,0,70,0,0,0
465,23.25,-3.763523075816902,1.3549516809811653,-3.5,-0.28378041646263796,-0.7882304297734694,0,0.16508659516748378,-0.05943483143944503,0,0,70,0,0,0
466,23.3,-3.7775054809499244,1.3154665869543318,-3.5,-0.2755106777079045,-0.7911588978564974,0,0.16569993208854464,-0.05770282140484653,0,0,70,0,0,0
467,23.35,-3.791073640038343,1.2758372371922795,-3.5,-0.2672107261026376,-0.7940006064508249,0,0.16629509814478347,-0.055964483605629375,0,0,70,0,0,0
468,23.4,-3.804226065180614,1.23606797749979,-3.5,-0.25888147183006227,-0.7967552439310814,0,0.1668720280695353,-0.05422000867012244,0,0,70,0,0,0
469,23.450000000000003,-3.8169613140651073,1.196163169024348,-3.5,-0.25052382828677183,-0.7994225082202255,0,0.16743065859593245,-0.05246958789966088,0,0,70,0,0,0
470,23.5,-3.8292779901282694,1.156127187777885,-3.5,-0.24213871198256204,-0.8020021068226707,0,0.16797092846384257,-0.05071341324760745,0,0,70,0,0,0
471,23.55,-3.8411747427077723,1.1159644241569164,-3.5,-0.23372704243992884,-0.80449375685636,0,0.16849277842658628,-0.048951677298303346,0,0,70,0,0,0
472,23.6,-3.8526502671906324,1.075679282461063,-3.5,-0.22528974209322772,-0.8068971850837896,0,0.1689961512574345,-0.04718457324594822,0,0,70,0,0,0
473,23.65,-3.8637033051562732,1.0352761804100823,-3.5,-0.21682773618752105,-0.8092121279419701,0,0.1694809917558838,-0.04541229487341479,0,0,70,0,0,0
474,23.700000000000003,-3.8743326445145243,0.9947595486594193,-3.5,-0.20834195267711533,-0.8114383315713296,0,0.16994724675370987,-0.043635036530998525,0,0,70,0,0,0
475,23.75,-3.8845371196385443,0.9541338303143228,-3.5,-0.19983332212379779,-0.8135755518435538,0,0.17039486512079802,-0.04185299311510439,0,0,70,0,0,0
476,23.8,-3.8943156114926407,0.9134034804426246,-3.5,-0.1913027775947932,-0.8156235543883549,0,0.17082379777075005,-0.04006636004687496,0,0,70,0,0,0
477,23.85,-3.9036670477549897,0.8725729655861693,-3.5,-0.1827512545604379,-0.8175821146191755,0,0.17123399766626732,-0.03827533325075933,0,0,70,0,0,0
478,23.9,-3.9125904029352228,0.8316467632710373,-3.5,-0.17417969079160137,-0.819451017757815,0,0.1716254198243087,-0.03648010913302911,0,0,70,0,0,0
479,23.950000000000003,-3.921084698486887,0.7906293615165053,-3.5,-0.16558902625684277,-0.8212300588579835,0,0.17199802132102365,-0.034680884560238975,0,0,70,0,0,0
480,24.0,-3.929149002914755,0.7495252583428983,-3.5,-0.15698020301933607,-0.8229190428277771,0,0.17235176129645924,-0.0328778568376387,0,0,70,0,0,0
481,24.05,-3.9367824318769675,0.7083389612783337,-3.5,-0.14835416513356256,-0.8245177844510694,0,0.17268660095904084,-0.031071223687536474,0,0,70,0,0,0
482,24.1,-3.94398414828202,0.6670749868644087,-3.5,-0.13971185854178228,-0.8260261084078261,0,0.17300250358982616,-0.02926118322761597,0,0,70,0,0,0
483,24.15,-3.9507533623805506,0.6257378601609239,-3.5,-0.13105423097030372,-0.8274438492933275,0,0.17329943454653182,-0.027447933949211075,0,0,70,0,0,0
484,24.200000000000003,-3.9570893318519533,0.5843321142496459,-3.5,-0.12238223182555195,-0.8287708516363093,0,0.17357736126733236,-0.025631674695538467,0,0,70,0,0,0
485,24.25,-3.962991361885775,0.5428622897372162,-3.5,-0.11369681208995815,-0.8300069699160105,0,0.1738362532744309,-0.02381260463989278,0,0,70,0,0,0
486,24.3,-3.968458805257911,0.5013329342572181,-3.5,-0.10499892421767275,-0.8311520685781321,0,0.1740760821774013,-0.02199092326380481,0,0,70,0,0,0
487,24.35,-3.973491062401586,0.45974860197146666,-3.5,-0.09628952203011584,-0.8322060220497016,0,0.17429682167630187,-0.02016683033516563,0,0,70,0,0,0
488,24.4,-3.9780875814730936,0.41811385307061316,-3.5,-0.08756956061138403,-0.8331687147528439,0,0.17449844756455896,-0.01834052588632068,0,0,70,0,0,0
489,24.450000000000003,-3.98224785841232,0.3764332532740574,-3.5,-0.07883999620351231,-0.8340400411174554,0,0.1746809377316218,-0.01651221019213343,0,0,70,0,0,0
490,24.5,-3.9859714369980175,0.33471137332926115,-3.5,-0.0701017861016105,-0.8348199055927814,0,0.17484427216538714,-0.01468208374802284,0,0,70,0,0,0
491,24.55,-3.9892579088978324,0.29295278851052675,-3.5,-0.061355888548887676,-0.835508222657894,0,0.17498843295439367,-0.012850347247977309,0,0,70,0,0,0
492,24.6,-3.9921069137130862,0.25116207811725255,-3.5,-0.052603262631567095,-0.8361049168310702,0,0.17511340428978636,-0.01101720156254571,0,0,70,0,0,0
493,24.65,-3.9945181390182953,0.20934382497177523,-3.5,-0.04384486817371444,-0.8366099226780699,0,0.17521917246704996,-0.00918284771681028,0,0,70,0,0,0
494,24.700000000000003,-3.9964913203954335,0.16750261491679924,-3.5,-0.03508166563197977,-0.837023184819311,0,0.17530572588751195,-0.007347486868341412,0,0,70,0,0,0
495,24.75,-3.9980262414629264,0.12564303631251117,-3.5,-0.02631461599027338,-0.8373446579359427,0,0.1753730550596144,-0.005511320285138624,0,0,70,0,0,0
496,24.8,-3.999122733899382,0.08376967953342844,-3.5,-0.017544680654386004,-0.8375743067748151,0,0.17542115259995486,-0.0036745493235598686,0,0,70,0,0,0
497,24.85,-3.9997806774620486,0.041887136464982835,-3.5,-0.008772821346553548,-0.8377121061523451,0,0.17545001323409604,-0.0018373754062392228,0,0,70,0,0,0
498,24.9,-4.0,2.266215559059192e-15,-3.5,-4.746350767860829e-16,-0.8377580409572781,0,0.17545963379714413,-9.940733802447901e-17,0,0,70,0,0,0
499,24.950000000000003,-3.9997806774620486,-0.041887136464983626,-3.5,0.008772821346553713,-0.8377121061523451,0,0.17545001323409604,0.0018373754062392573,0,0,70,0,0,0
500,25.0,-3.999122733899382,-0.08376967953342924,-3.5,0.017544680654386174,-0.8375743067748151,0,0.17542115259995486,0.0036745493235599037,0,0,70,0,0,0
501,25.05,-3.9980262414629264,-0.12564303631251197,-3.5,0.02631461599027355,-0.8373446579359427,0,0.1753730550596144,0.005511320285138659,0,0,70,0,0,0
502,25.1,-3.9964913203954335,-0.16750261491679827,-3.5,0.03508166563197957,-0.837023184819311,0,0.17530572588751195,0.00734748686834137,0,0,70,0,0,0
503,25.15,-3.9945181390182953,-0.20934382497177426,-3.5,0.04384486817371423,-0.8366099226780699,0,0.17521917246704996,0.009182847716810237,0,0,70,0,0,0
504,25.200000000000003,-3.9921069137130862,-0.2511620781172534,-3.5,0.05260326263156726,-0.8361049168310702,0,0.17511340428978636,0.011017201562545747,0,0,70,0,0,0
505,25.25,-3.9892579088978324,-0.29295278851052753,-3.5,0.06135588854888784,-0.835508222657894,0,0.17498843295439367,0.012850347247977345,0,0,70,0,0,0
506,25.3,-3.9859714369980175,-0.33471137332926193,-3.5,0.07010178610161066,-0.8348199055927814,0,0.17484427216538714,0.014682083748022875,0,0,70,0,0,0
507,25.35,-3.98224785841232,-0.3764332532740582,-3.5,0.07883999620351248,-0.8340400411174554,0,0.1746809377316218,0.016512210192133465,0,0,70,0,0,0
508,25.4,-3.9780875814730936,-0.4181138530706122,-3.5,0.08756956061138382,-0.8331687147528439,0,0.17449844756455896,0.01834052588632064,0,0,70,0,0,0
509,25.450000000000003,-3.973491062401586,-0.4597486019714657,-3.5,0.09628952203011563,-0.8322060220497016,0,0.17429682167630187,0.02016683033516559,0,0,70,0,0,0
510,25.5,-3.968458805257911,-0.5013329342572189,-3.5,0.10499892421767291,-0.8311520685781321,0,0.1740760821774013,0.02199092326380484,0,0,70,0,0,0
511,25.55,-3.9629913618857744,-0.542862289737217,-3.5,0.11369681208995831,-0.8300069699160105,0,0.1738362532744309,0.02381260463989281,0,0,70,0,0,0
512,25.6,-3.9570893318519533,-0.5843321142496468,-3.5,0.12238223182555213,-0.8287708516363093,0,0.17357736126733236,0.025631674695538505,0,0,70,0,0,0
513,25.65,-3.950753362380551,-0.6257378601609229,-3.5,0.1310542309703035,-0.8274438492933276,0,0.17329943454653185,0.02744793394921103,0,0,70,0,0,0
514,25.700000000000003,-3.9439841482820195,-0.6670749868644095,-3.5,0.13971185854178242,-0.826026108407826,0,0.17300250358982613,0.029261183227616006,0,0,70,0,0,0
515,25.75,-3.9367824318769675,-0.7083389612783345,-3.5,0.1483541651335627,-0.8245177844510694,0,0.17268660095904084,0.03107122368753651,0,0,70,0,0,0
516,25.8,-3.929149002914755,-0.7495252583428973,-3.5,0.15698020301933585,-0.8229190428277771,0,0.17235176129645924,0.03287785683763866,0,0,70,0,0,0
517,25.85,-3.921084698486887,-0.7906293615165061,-3.5,0.16558902625684296,-0.8212300588579835,0,0.17199802132102365,0.03468088456023901,0,0,70,0,0,0
518,25.9,-3.9125904029352228,-0.8316467632710363,-3.5,0.17417969079160117,-0.819451017757815,0,0.1716254198243087,0.036480109133029064,0,0,70,0,0,0
519,25.950000000000003,-3.9036670477549897,-0.87257296558617,-3.5,0.1827512545604381,-0.8175821146191755,0,0.17123399766626732,0.038275333250759366,0,0,70,0,0,0
520,26.0,-3.8943156114926407,-0.9134034804426238,-3.5,0.191302777594793,-0.8156235543883549,0,0.17082379777075005,0.040066360046874916,0,0,70,0,0,0
521,26.050000000000004,-3.884537119638544,-0.9541338303143252,-3.5,0.19983332212379828,-0.8135755518435537,0,0.17039486512079802,0.041852993115104486,0,0,70,0,0,0
522,26.1,-3.8743326445145247,-0.9947595486594183,-3.5,0.20834195267711514,-0.8114383315713297,0,0.16994724675370987,0.043635036530998476,0,0,70,0,0,0
523,26.15,-3.8637033051562737,-1.0352761804100814,-3.5,0.21682773618752088,-0.8092121279419702,0,0.1694809917558838,0.04541229487341475,0,0,70,0,0,0
524,26.200000000000003,-3.8526502671906324,-1.0756792824610637,-3.5,0.22528974209322786,-0.8068971850837896,0,0.1689961512574345,0.047184573245948255,0,0,70,0,0,0
525,26.25,-3.841174742707772,-1.1159644241569189,-3.5,0.23372704243992934,-0.8044937568563599,0,0.16849277842658625,0.04895167729830346,0,0,70,0,0,0
526,26.300000000000004,-3.8292779901282685,-1.1561271877778874,-3.5,0.24213871198256254,-0.8020021068226704,0,0.16797092846384254,0.05071341324760755,0,0,70,0,0,0
527,26.35,-3.8169613140651073,-1.1961631690243468,-3.5,0.2505238282867716,-0.7994225082202255,0,0.16743065859593245,0.05246958789966084,0,0,70,0,0,0
528,26.4,-3.8042260651806146,-1.2360679774997891,-3.5,0.2588814718300621,-0.7967552439310815,0,0.1668720280695353,0.0542200086701224,0,0,70,0,0,0
529,26.450000000000003,-3.7910736400383427,-1.2758372371922801,-3.5,0.26721072610263774,-0.7940006064508248,0,0.16629509814478347,0.055964483605629396,0,0,70,0,0,0
530,26.5,-3.7775054809499244,-1.3154665869543325,-3.5,0.27551067770790466,-0.7911588978564974,0,0.16569993208854464,0.05770282140484656,0,0,70,0,0,0
531,26.550000000000004,-3.763523075816902,-1.354951680981166,-3.5,0.28378041646263813,-0.7882304297734694,0,0.16508659516748378,0.059434831439445064,0,0,70,0,0,0
532,26.6,-3.7491279579675663,-1.3942881892872605,-3.5,0.2920190354967915,-0.7852155233412673,0,0.164455154640906,0.06116032377500648,0,0,70,0,0,0
533,26.65,-3.7343217059888074,-1.4334717981812,-3.5,0.3002256313529472,-0.7821145091783561,0,0.16380567975338067,0.06287910919185176,0,0,70,0,0,0
534,26.700000000000003,-3.719105943553006,-1.4724982107387117,-3.5,0.3083993040853901,-0.778927727345884,0,0.16313824172714816,0.06459099920579107,0,0,70,0,0,0
535,26.75,-3.703482339239979,-1.5113631472738691,-3.5,0.31653915735879573,-0.7756555273103907,0,0.16245291375430937,0.06629580608879308,0,0,70,0,0,0
536,26.800000000000004,-3.6874526063540016,-1.5500623458084135,-3.5,0.3246442985465249,-0.7722982679054844,0,0.16174977098879945,0.06799334288957161,0,0,70,0,0,0
537,26.85,-3.671018502735925,-1.5885915625391216,-3.5,0.33271383882850897,-0.7688563172924923,0,0.16102889053814645,0.06968342345408682,0,0,70,0,0,0
538,26.9,-3.6541818305704035,-1.6269465723032008,-3.5,0.3407468932887221,-0.7653300529200854,0,0.16029035145501522,0.07136586244595962,0,0,70,0,0,0
539,26.950000000000003,-3.6369444361882737,-1.6651231690416055,-3.5,0.34874258101221756,-0.7617198614828902,0,0.15953423472853884,0.07304047536679506,0,0,70,0,0,0
540,27.0,-3.619308209864078,-1.7031171662602906,-3.5,0.35670002518173305,-0.7580261388790809,0,0.1587606232754371,0.0747070785764151,0,0,70,0,0,0
541,27.050000000000004,-3.6012750856087736,-1.740924397489311,-3.5,0.3646183531738438,-0.7542492901669652,0,0.15796960193092358,0.07636548931299708,0,0,70,0,0,0
542,27.1,-3.582847040957651,-1.7785407167397103,-3.5,0.37249669665465324,-0.7503897295205657,0,0.15716125743940274,0.07801552571311496,0,0,70,0,0,0
543,27.15,-3.5640260967534716,-1.8159619989581868,-3.5,0.38033419167501836,-0.7464478801842008,0,0.1563356784449573,0.07965700683168334,0,0,70,0,0,0
544,27.200000000000003,-3.5448143169248585,-1.8531841404794474,-3.5,0.38812997876528976,-0.7424241744260703,0,0.15549295548162734,0.0812897526617998,0,0,70,0,0,0
545,27.25,-3.525213808259969,-1.8902030594762156,-3.5,0.395883203029562,-0.7383190534908545,0,0.15463318096348252,0.08291358415448456,0,0,70,0,0,0
546,27.300000000000004,-3.505226720175454,-1.9270146964068615,-3.5,0.40359301423942406,-0.7341329675513234,0,0.15375644917448744,0.0845283232383157,0,0,70,0,0,0
547,27.35,-3.484855244480759,-1.9636150144605615,-3.5,0.41125856692719437,-0.7298663756589743,0,0.1528628562581628,0.086133792838956,0,0,70,0,0,0
548,27.4,-3.4641016151377553,-1.999999999999999,-3.5,0.41887902047863884,-0.7255197456936873,0,0.1519525002070415,0.08772981689857202,0,0,70,0,0,0
549,27.450000000000003,-3.4429681080157746,-2.036165663001485,-3.5,0.42645353922515034,-0.7210935543124204,0,0.1510254808519235,0.08931622039513994,0,0,70,0,0,0
550,27.5,-3.421457040642026,-2.0721080374925216,-3.5,0.4339812925353913,-0.7165882868969375,0,0.1500818998509276,0.09089282936163921,0,0,70,0,0,0
551,27.550000000000004,-3.3995707719474546,-2.1078231819867117,-3.5,0.441461454906381,-0.7120044375005803,0,0.14912186067834377,0.09245947090512988,0,0,70,0,0,0
552,27.6,-3.3773117020080616,-2.1433071799159844,-3.5,0.4488932060540209,-0.7073425087940912,0,0.148145468613286,0.09401597322571209,0,0,70,0,0,0
553,27.65,-3.354682271781696,-2.1785561400601083,-3.5,0.4562757310030515,-0.7026030120104864,0,0.147152830728147,0.09556216563536662,0,0,70,0,0,0
554,27.700000000000003,-3.3316849628403973,-2.2135661969733773,-3.5,0.4636082201764173,-0.6977864668889983,0,0.14614405587685697,0.09709787857667146,0,0,70,0,0,0
555,27.75,-3.3083222970982473,-2.2483335114085223,-3.5,0.4708898694840505,-0.6928934016180774,0,0.14511925468294629,0.09862294364139663,0,0,70,0,0,0
556,27.800000000000004,-3.2845968365348157,-2.2828542707377277,-3.5,0.47811988041104864,-0.6879243527774701,0,0.14407853952741423,0.10013719358897206,0,0,70,0,0,0
557,27.85,-3.2605111829142177,-2.317124689370714,-3.5,0.4852974601052378,-0.6828798652793782,0,0.14302202453640547,0.10164046236482671,0,0,70,0,0,0
558,27.9,-3.2360679774997902,-2.351141009169892,-3.5,0.4924218214641217,-0.6777604923087014,0,0.14194982556869454,0.1031325851185993,0,0,70,0,0,0
559,27.950000000000003,-3.211269900764458,-2.3848994998624633,-3.5,0.49949218322119243,-0.6725667952623763,0,0.1408620602029808,0.104613398222215,0,0,70,0,0,0
560,28.0,-3.1861196720967855,-2.418396459449499,-3.5,0.5065077700316075,-0.6672993436878122,0,0.13975884772499475,0.10608273928782976,0,0,70,0,0,0
561,28.050000000000004,-3.16062004950276,-2.4516282146119077,-3.5,0.5134678125572153,-0.6619587152204319,0,0.13864030911441647,0.1075404471856379,0,0,70,0,0,0
562,28.1,-3.1347738293033607,-2.48459112111324,-3.5,0.5203715475509189,-0.6565454955203321,0,0.1375065670316097,0.10898636206154122,0,0,70,0,0,0
563,28.15,-3.108583845827884,-2.5172815641993487,-3.5,0.5272182179403798,-0.6510602782080525,0,0.13635774580416962,0.11042032535467998,0,0,70,0,0,0
564,28.200000000000003,-3.082052971103156,-2.54969595899476,-3.5,0.5340070729110347,-0.6455036647994846,0,0.13519397141328995,0.11184217981481971,0,0,70,0,0,0
565,28.25,-3.055184114538568,-2.581830750895803,-3.5,0.5407373679884315,-0.6398762646399069,0,0.1340153714799473,0.11325176951959581,0,0,70,0,0,0
566,28.300000000000004,-3.0279802226070247,-2.613682415960423,-3.5,0.5474083651198725,-0.6341786948371609,0,0.1328220752509059,0.11464893989161268,0,0,70,0,0,0
567,28.35,-3.000444278521839,-2.645247461294607,-3.5,0.5540193327553458,-0.6284115801939824,0,0.13161421358454456,0.11603353771539424,0,0,70,0,0,0
568,28.4,-2.972579301909577,-2.676522425435433,-3.5,0.5605695459277527,-0.6225755531394802,0,0.13039191893650617,0.11740541115418628,0,0,70,0,0,0
569,28.450000000000003,-2.944388348478937,-2.707503878730644,-3.5,0.5670582863324041,-0.6166712536597874,0,0.12915532534517307,0.11876440976660653,0,0,70,0,0,0
570,28.5,-2.915874509685646,-2.738188423714755,-3.5,0.5734848424057926,-0.6106993292278777,0,0.12790456841696768,0.12011038452314256,0,0,70,0,0,0
571,28.550000000000004,-2.887040912393448,-2.768572695481628,-3.5,0.579848509403625,-0.604660434732562,0,0.12663978531148182,0.12144318782249468,0,0,70,0,0,0
572,28.6,-2.857890718531215,-2.7986533620534604,-3.5,0.5861485894781018,-0.5985552324066746,0,0.12536111472643602,0.1227626735077616,0,0,70,0,0,0
573,28.65,-2.8284271247461907,-2.82842712474619,-3.5,0.5923843917544488,-0.5923843917544489,0,0.12406869688246898,0.12406869688246895,0,0,70,0,0,0
574,28.700000000000003,-2.7986533620534626,-2.8578907185312126,-3.5,0.5985552324066742,-0.5861485894781022,0,0.12276267350776171,0.12536111472643593,0,0,70,0,0,0
575,28.75,-2.7685726954816263,-2.8870409123934495,-3.5,0.6046604347325623,-0.5798485094036246,0,0.12144318782249461,0.1266397853114819,0,0,70,0,0,0
576,28.800000000000004,-2.738188423714753,-2.9158745096856475,-3.5,0.610699329227878,-0.5734848424057922,0,0.12011038452314247,0.12790456841696773,0,0,70,0,0,0
577,28.85,-2.7075038787306447,-2.944388348478936,-3.5,0.6166712536597873,-0.5670582863324042,0,0.11876440976660657,0.12915532534517304,0,0,70,0,0,0
578,28.9,-2.676522425435434,-2.972579301909576,-3.5,0.62257555313948,-0.560569545927753,0,0.11740541115418632,0.13039191893650615,0,0,70,0,0,0
579,28.950000000000003,-2.6452474612946077,-3.000444278521838,-3.5,0.6284115801939821,-0.554019332755346,0,0.11603353771539426,0.1316142135845445,0,0,70,0,0,0
580,29.0,-2.6136824159604197,-3.0279802226070274,-3.5,0.6341786948371616,-0.5474083651198717,0,0.11464893989161255,0.132822075250906,0,0,70,0,0,0
581,29.050000000000004,-2.5818307508958025,-3.0551841145385685,-3.5,0.639876264639907,-0.5407373679884314,0,0.1132517695195958,0.13401537147994733,0,0,70,0,0,0
582,29.1,-2.549695958994758,-3.0820529711031575,-3.5,0.645503664799485,-0.5340070729110343,0,0.11184217981481963,0.13519397141329,0,0,70,0,0,0
583,29.15,-2.5172815641993513,-3.1085838458278823,-3.5,0.651060278208052,-0.5272182179403804,0,0.1104203253546801,0.13635774580416954,0,0,70,0,0,0
584,29.200000000000003,-2.484591121113242,-3.1347738293033585,-3.5,0.6565454955203317,-0.5203715475509193,0,0.10898636206154132,0.13750656703160963,0,0,70,0,0,0
585,29.25,-2.451628214611906,-3.1606200495027617,-3.5,0.6619587152204323,-0.513467812557215,0,0.10754044718563784,0.13864030911441652,0,0,70,0,0,0
586,29.300000000000004,-2.4183964594494984,-3.186119672096786,-3.5,0.6672993436878122,-0.5065077700316073,0,0.10608273928782973,0.13975884772499475,0,0,70,0,0,0
587,29.35,-2.3848994998624615,-3.211269900764459,-3.5,0.6725667952623766,-0.49949218322119204,0,0.10461339822221492,0.14086206020298084,0,0,70,0,0,0
588,29.4,-2.351141009169893,-3.2360679774997894,-3.5,0.6777604923087013,-0.4924218214641219,0,0.10313258511859932,0.14194982556869448,0,0,70,0,0,0
589,29.450000000000003,-2.317124689370715,-3.2605111829142173,-3.5,0.6828798652793782,-0.48529746010523794,0,0.10164046236482677,0.14302202453640547,0,0,70,0,0,0
590,29.5,-2.2828542707377255,-3.284596836534817,-3.5,0.6879243527774703,-0.47811988041104825,0,0.10013719358897197,0.14407853952741428,0,0,70,0,0,0
591,29.550000000000004,-2.2483335114085206,-3.3083222970982487,-3.5,0.6928934016180778,-0.4708898694840501,0,0.09862294364139657,0.14511925468294634,0,0,70,0,0,0
592,29.6,-2.2135661969733738,-3.3316849628403995,-3.5,0.6977864668889988,-0.4636082201764165,0,0.09709787857667129,0.14614405587685708,0,0,70,0,0,0
593,29.65,-2.178556140060108,-3.354682271781696,-3.5,0.7026030120104864,-0.4562757310030514,0,0.09556216563536661,0.147152830728147,0,0,70,0,0,0
594,29.700000000000003,-2.1433071799159853,-3.377311702008061,-3.5,0.7073425087940911,-0.4488932060540211,0,0.09401597322571212,0.14814546861328598,0,0,70,0,0,0
595,29.75,-2.1078231819867113,-3.399570771947455,-3.5,0.7120044375005804,-0.44146145490638095,0,0.09245947090512986,0.14912186067834377,0,0,70,0,0,0
596,29.800000000000004,-2.072108037492521,-3.4214570406420264,-3.5,0.7165882868969377,-0.43398129253539125,0,0.0908928293616392,0.1500818998509276,0,0,70,0,0,0
597,29.85,-2.0361656630014844,-3.442968108015775,-3.5,0.7210935543124205,-0.4264535392251503,0,0.08931622039513992,0.15102548085192352,0,0,70,0,0,0
598,29.9,-2.0000000000000018,-3.4641016151377535,-3.5,0.7255197456936868,-0.41887902047863945,0,0.08772981689857215,0.15195250020704146,0,0,70,0,0,0
599,29.950000000000003,-1.9636150144605642,-3.4848552444807575,-3.5,0.7298663756589739,-0.4112585669271949,0,0.08613379283895613,0.15286285625816273,0,0,70,0,0,0
600,30.0,-1.9270146964068608,-3.5052267201754543,-3.5,0.7341329675513235,-0.403593014239424,0,0.08452832323831569,0.15375644917448744,0,0,70,0,0,0
601,30.050000000000004,-1.8902030594762151,-3.5252138082599696,-3.5,0.7383190534908546,-0.39588320302956187,0,0.08291358415448455,0.15463318096348255,0,0,70,0,0,0
602,30.1,-1.8531841404794451,-3.54481431692486,-3.5,0.7424241744260708,-0.3881299787652893,0,0.08128975266179969,0.1554929554816274,0,0,70,0,0,0
603,30.15,-1.8159619989581879,-3.564026096753471,-3.5,0.7464478801842007,-0.38033419167501853,0,0.07965700683168336,0.15633567844495727,0,0,70,0,0,0
604,30.200000000000003,-1.7785407167397098,-3.5828470409576516,-3.5,0.7503897295205657,-0.3724966966546531,0,0.07801552571311493,0.15716125743940276,0,0,70,0,0,0
605,30.25,-1.7409243974893087,-3.6012750856087745,-3.5,0.7542492901669653,-0.36461835317384333,0,0.07636548931299698,0.15796960193092363,0,0,70,0,0,0
606,30.300000000000004,-1.7031171662602889,-3.619308209864079,-3.5,0.7580261388790811,-0.3567000251817326,0,0.07470707857641504,0.15876062327543716,0,0,70,0,0,0
607,30.35,-1.665123169041602,-3.6369444361882755,-3.5,0.7617198614828905,-0.3487425810122168,0,0.07304047536679491,0.15953423472853892,0,0,70,0,0,0
608,30.4,-1.6269465723032033,-3.654181830570402,-3.5,0.7653300529200852,-0.3407468932887226,0,0.07136586244595974,0.16029035145501513,0,0,70,0,0,0
609,30.450000000000003,-1.5885915625391211,-3.671018502735925,-3.5,0.7688563172924923,-0.3327138388285089,0,0.0696834234540868,0.16102889053814645,0,0,70,0,0,0
610,30.5,-1.55006234580841,-3.687452606354003,-3.5,0.7722982679054847,-0.32464429854652405,0,0.06799334288957144,0.1617497709887995,0,0,70,0,0,0
611,30.550000000000004,-1.511363147273869,-3.703482339239979,-3.5,0.7756555273103907,-0.3165391573587956,0,0.06629580608879306,0.16245291375430937,0,0,70,0,0,0
612,30.6,-1.4724982107387081,-3.719105943553007,-3.5,0.7789277273458842,-0.30839930408538935,0,0.06459099920579091,0.16313824172714822,0,0,70,0,0,0
613,30.65,-1.4334717981811993,-3.7343217059888074,-3.5,0.7821145091783561,-0.3002256313529471,0,0.06287910919185175,0.16380567975338067,0,0,70,0,0,0
614,30.700000000000003,-1.3942881892872618,-3.749127957967566,-3.5,0.7852155233412671,-0.2920190354967918,0,0.06116032377500654,0.16445515464090596,0,0,70,0,0,0
615,30.75,-1.3549516809811655,-3.763523075816902,-3.5,0.7882304297734694,-0.283780416462638,0,0.05943483143944504,0.16508659516748378,0,0,70,0,0,0
616,30.800000000000004,-1.315466586954332,-3.7775054809499244,-3.5,0.7911588978564974,-0.27551067770790455,0,0.05770282140484654,0.16569993208854464,0,0,70,0,0,0
617,30.85,-1.275837237192278,-3.7910736400383436,-3.5,0.794000606450825,-0.26721072610263724,0,0.055964483605629306,0.1662950981447835,0,0,70,0,0,0
618,30.9,-1.2360679774997902,-3.804226065180614,-3.5,0.7967552439310814,-0.2588814718300623,0,0.054220008670122444,0.1668720280695353,0,0,70,0,0,0
619,30.950000000000003,-1.1961631690243464,-3.8169613140651077,-3.5,0.7994225082202256,-0.2505238282867715,0,0.05246958789966081,0.16743065859593245,0,0,70,0,0,0
620,31.0,-1.1561271877778854,-3.8292779901282694,-3.5,0.8020021068226707,-0.24213871198256207,0,0.050713413247607454,0.16797092846384257,0,0,70,0,0,0
621,31.050000000000004,-1.1159644241569149,-3.8411747427077727,-3.5,0.8044937568563602,-0.2337270424399285,0,0.048951677298303284,0.1684927784265863,0,0,70,0,0,0
622,31.1,-1.0756792824610635,-3.8526502671906324,-3.5,0.8068971850837896,-0.22528974209322775,0,0.047184573245948234,0.1689961512574345,0,0,70,0,0,0
623,31.15,-1.0352761804100825,-3.8637033051562732,-3.5,0.8092121279419701,-0.2168277361875211,0,0.0454122948734148,0.1694809917558838,0,0,70,0,0,0
624,31.200000000000003,-0.9947595486594176,-3.8743326445145247,-3.5,0.8114383315713297,-0.208341952677115,0,0.043635036530998456,0.16994724675370987,0,0,70,0,0,0
625,31.25,-0.9541338303143245,-3.884537119638544,-3.5,0.8135755518435537,-0.19983332212379817,0,0.041852993115104466,0.17039486512079802,0,0,70,0,0,0
626,31.300000000000004,-0.9134034804426197,-3.8943156114926416,-3.5,0.815623554388355,-0.19130277759479217,0,0.04006636004687474,0.17082379777075007,0,0,70,0,0,0
627,31.35,-0.8725729655861696,-3.9036670477549897,-3.5,0.8175821146191755,-0.18275125456043798,0,0.03827533325075934,0.17123399766626732,0,0,70,0,0,0
628,31.4,-0.8316467632710394,-3.9125904029352223,-3.5,0.8194510177578149,-0.17417969079160175,0,0.03648010913302919,0.1716254198243087,0,0,70,0,0,0
629,31.450000000000003,-0.7906293615165021,-3.921084698486888,-3.5,0.8212300588579837,-0.16558902625684213,0,0.03468088456023884,0.17199802132102368,0,0,70,0,0,0
630,31.5,-0.7495252583428984,-3.929149002914755,-3.5,0.8229190428277771,-0.1569802030193361,0,0.03287785683763871,0.17235176129645924,0,0,70,0,0,0
631,31.550000000000004,-0.7083389612783324,-3.936782431876968,-3.5,0.8245177844510695,-0.14835416513356225,0,0.03107122368753641,0.17268660095904084,0,0,70,0,0,0
632,31.6,-0.6670749868644075,-3.94398414828202,-3.5,0.8260261084078261,-0.13971185854178195,0,0.02926118322761591,0.17300250358982616,0,0,70,0,0,0
633,31.65,-0.6257378601609243,-3.9507533623805506,-3.5,0.8274438492933275,-0.13105423097030378,0,0.027447933949211085,0.17329943454653182,0,0,70,0,0,0
634,31.700000000000003,-0.584332114249646,-3.9570893318519533,-3.5,0.8287708516363093,-0.12238223182555202,0,0.02563167469553848,0.17357736126733236,0,0,70,0,0,0
635,31.75,-0.5428622897372164,-3.9629913618857744,-3.5,0.8300069699160105,-0.11369681208995819,0,0.023812604639892786,0.1738362532744309,0,0,70,0,0,0
636,31.800000000000004,-0.5013329342572148,-3.9684588052579115,-3.5,0.8311520685781322,-0.10499892421767208,0,0.021990923263804668,0.1740760821774013,0,0,70,0,0,0
637,31.85,-0.45974860197146317,-3.9734910624015862,-3.5,0.8322060220497017,-0.09628952203011515,0,0.02016683033516549,0.1742968216763019,0,0,70,0,0,0
638,31.9,-0.41811385307061677,-3.978087581473093,-3.5,0.8331687147528438,-0.08756956061138482,0,0.018340525886320846,0.17449844756455893,0,0,70,0,0,0
639,31.950000000000003,-0.3764332532740595,-3.98224785841232,-3.5,0.8340400411174554,-0.07883999620351273,0,0.01651221019213352,0.1746809377316218,0,0,70,0,0,0
640,32.0,-0.3347113733292595,-3.9859714369980175,-3.5,0.8348199055927814,-0.07010178610161018,0,0.01468208374802277,0.17484427216538714,0,0,70,0,0,0
641,32.050000000000004,-0.2929527885105272,-3.9892579088978324,-3.5,0.835508222657894,-0.06135588854888774,0,0.01285034724797732,0.17498843295439367,0,0,70,0,0,0
642,32.1,-0.251162078117253,-3.9921069137130862,-3.5,0.8361049168310702,-0.052603262631567144,0,0.011017201562545723,0.17511340428978636,0,0,70,0,0,0
643,32.15,-0.20934382497177362,-3.9945181390182958,-3.5,0.83660992267807,-0.043844868173714115,0,0.009182847716810215,0.17521917246704996,0,0,70,0,0,0
644,32.2,-0.16750261491679952,-3.9964913203954335,-3.5,0.837023184819311,-0.03508166563197982,0,0.0073474868683414225,0.17530572588751195,0,0,70,0,0,0
645,32.25,-0.12564303631251317,-3.9980262414629264,-3.5,0.8373446579359427,-0.026314615990273803,0,0.005511320285138712,0.1753730550596144,0,0,70,0,0,0
646,32.300000000000004,-0.08376967953342707,-3.999122733899382,-3.5,0.8375743067748151,-0.017544680654385685,0,0.003674549323559802,0.17542115259995486,0,0,70,0,0,0
647,32.35,-0.0418871364649811,-3.9997806774620486,-3.5,0.8377121061523451,-0.008772821346553225,0,0.0018373754062391554,0.17545001323409604,0,0,70,0,0,0
648,32.4,-8.881784197001252e-16,-4.0,-3.5,0.8377580409572781,-1.5389365549774318e-16,0,3.22314118363859e-17,0.17545963379714413,0,0,70,0,0,0
649,32.45,0.04188713646497977,-3.9997806774620486,-3.5,0.8377121061523451,0.008772821346552918,0,-0.0018373754062390908,0.17545001323409604,0,0,70,0,0,0
650,32.5,0.08376967953342884,-3.999122733899382,-3.5,0.8375743067748151,0.017544680654386118,0,-0.003674549323559893,0.17542115259995486,0,0,70,0,0,0
651,32.550000000000004,0.12564303631251494,-3.998026241462926,-3.5,0.8373446579359427,0.02631461599027424,0,-0.005511320285138804,0.1753730550596144,0,0,70,0,0,0
652,32.6,0.1675026149167982,-3.9964913203954335,-3.5,0.837023184819311,0.03508166563197952,0,-0.007347486868341358,0.17530572588751195,0,0,70,0,0,0
653,32.65,0.20934382497177584,-3.9945181390182953,-3.5,0.8366099226780699,0.04384486817371455,0,-0.009182847716810305,0.17521917246704996,0,0,70,0,0,0
654,32.7,0.2511620781172548,-3.9921069137130862,-3.5,0.8361049168310702,0.05260326263156758,0,-0.011017201562545813,0.17511340428978636,0,0,70,0,0,0
655,32.75,0.29295278851052586,-3.9892579088978324,-3.5,0.835508222657894,0.061355888548887426,0,-0.012850347247977257,0.17498843295439367,0,0,70,0,0,0
656,32.800000000000004,0.3347113733292648,-3.985971436998017,-3.5,0.8348199055927814,0.07010178610161134,0,-0.014682083748023019,0.17484427216538712,0,0,70,0,0,0
657,32.85,0.3764332532740582,-3.98224785841232,-3.5,0.8340400411174554,0.07883999620351242,0,-0.016512210192133454,0.1746809377316218,0,0,70,0,0,0
658,32.9,0.41811385307061233,-3.9780875814730936,-3.5,0.8331687147528439,0.08756956061138378,0,-0.018340525886320624,0.17449844756455896,0,0,70,0,0,0
659,32.95,0.45974860197146583,-3.973491062401586,-3.5,0.8322060220497016,0.09628952203011558,0,-0.02016683033516558,0.17429682167630187,0,0,70,0,0,0
660,33.0,0.501332934257217,-3.9684588052579115,-3.5,0.8311520685781322,0.1049989242176725,0,-0.021990923263804755,0.1740760821774013,0,0,70,0,0,0
661,33.050000000000004,0.5428622897372186,-3.9629913618857744,-3.5,0.8300069699160105,0.1136968120899586,0,-0.023812604639892872,0.1738362532744309,0,0,70,0,0,0
662,33.1,0.5843321142496478,-3.957089331851953,-3.5,0.8287708516363091,0.12238223182555245,0,-0.025631674695538568,0.17357736126733236,0,0,70,0,0,0
663,33.15,0.6257378601609229,-3.950753362380551,-3.5,0.8274438492933276,0.13105423097030347,0,-0.027447933949211023,0.17329943454653185,0,0,70,0,0,0
664,33.2,0.6670749868644092,-3.9439841482820195,-3.5,0.826026108407826,0.1397118585417824,0,-0.029261183227615995,0.17300250358982613,0,0,70,0,0,0
665,33.25,0.7083389612783346,-3.9367824318769675,-3.5,0.8245177844510694,0.14835416513356267,0,-0.0310712236875365,0.17268660095904084,0,0,70,0,0,0
666,33.300000000000004,0.7495252583428975,-3.929149002914755,-3.5,0.8229190428277771,0.15698020301933582,0,-0.03287785683763864,0.17235176129645924,0,0,70,0,0,0
667,33.35,0.7906293615165074,-3.9210846984868866,-3.5,0.8212300588579834,0.16558902625684324,0,-0.03468088456023908,0.17199802132102363,0,0,70,0,0,0
668,33.4,0.8316467632710376,-3.9125904029352223,-3.5,0.8194510177578149,0.17417969079160145,0,-0.036480109133029126,0.1716254198243087,0,0,70,0,0,0
669,33.45,0.8725729655861683,-3.90366704775499,-3.5,0.8175821146191756,0.18275125456043767,0,-0.038275333250759276,0.17123399766626732,0,0,70,0,0,0
670,33.5,0.913403480442625,-3.8943156114926407,-3.5,0.8156235543883549,0.1913027775947933,0,-0.04006636004687498,0.17082379777075005,0,0,70,0,0,0
671,33.550000000000004,0.9541338303143228,-3.8845371196385443,-3.5,0.8135755518435538,0.19983332212379787,0,-0.0418529931151044,0.17039486512079802,0,0,70,0,0,0
672,33.6,0.9947595486594194,-3.8743326445145243,-3.5,0.8114383315713296,0.20834195267711542,0,-0.043635036530998546,0.16994724675370987,0,0,70,0,0,0
673,33.65,1.0352761804100847,-3.863703305156273,-3.5,0.80921212794197,0.21682773618752152,0,-0.045412294873414895,0.16948099175588377,0,0,70,0,0,0
674,33.7,1.0756792824610617,-3.852650267190633,-3.5,0.8068971850837897,0.22528974209322747,0,-0.04718457324594817,0.1689961512574345,0,0,70,0,0,0
675,33.75,1.1159644241569167,-3.8411747427077723,-3.5,0.80449375685636,0.23372704243992892,0,-0.04895167729830337,0.16849277842658628,0,0,70,0,0,0
676,33.800000000000004,1.1561271877778871,-3.829277990128269,-3.5,0.8020021068226705,0.24213871198256248,0,-0.050713413247607544,0.16797092846384257,0,0,70,0,0,0
677,33.85,1.1961631690243486,-3.816961314065107,-3.5,0.7994225082202254,0.25052382828677194,0,-0.0524695878996609,0.16743065859593242,0,0,70,0,0,0
678,33.9,1.236067977499789,-3.8042260651806146,-3.5,0.7967552439310815,0.25888147183006205,0,-0.054220008670122395,0.1668720280695353,0,0,70,0,0,0
679,33.95,1.2758372371922801,-3.7910736400383427,-3.5,0.7940006064508248,0.2672107261026377,0,-0.05596448360562939,0.16629509814478347,0,0,70,0,0,0
680,34.0,1.3154665869543338,-3.777505480949924,-3.5,0.7911588978564973,0.27551067770790494,0,-0.05770282140484664,0.16569993208854464,0,0,70,0,0,0
681,34.050000000000004,1.3549516809811673,-3.7635230758169014,-3.5,0.7882304297734692,0.28378041646263846,0,-0.05943483143944513,0.16508659516748375,0,0,70,0,0,0
682,34.1,1.39428818928726,-3.7491279579675663,-3.5,0.7852155233412673,0.2920190354967914,0,-0.06116032377500647,0.164455154640906,0,0,70,0,0,0
683,34.15,1.4334717981811984,-3.7343217059888083,-3.5,0.7821145091783562,0.3002256313529469,0,-0.06287910919185169,0.1638056797533807,0,0,70,0,0,0
684,34.2,1.4724982107387135,-3.719105943553005,-3.5,0.7789277273458838,0.3083993040853904,0,-0.06459099920579114,0.1631382417271481,0,0,70,0,0,0
685,34.25,1.5113631472738671,-3.7034823392399794,-3.5,0.7756555273103908,0.31653915735879534,0,-0.066295806088793,0.1624529137543094,0,0,70,0,0,0
686,34.300000000000004,1.5500623458084117,-3.687452606354002,-3.5,0.7722982679054845,0.3246442985465245,0,-0.06799334288957153,0.16174977098879947,0,0,70,0,0,0
687,34.35,1.5885915625391265,-3.671018502735923,-3.5,0.7688563172924918,0.33271383882850997,0,-0.06968342345408703,0.16102889053814637,0,0,70,0,0,0
688,34.4,1.6269465723031988,-3.6541818305704044,-3.5,0.7653300529200856,0.34074689328872165,0,-0.07136586244595955,0.16029035145501525,0,0,70,0,0,0
689,34.45,1.6651231690416033,-3.6369444361882746,-3.5,0.7617198614828903,0.34874258101221717,0,-0.07304047536679499,0.1595342347285389,0,0,70,0,0,0
690,34.5,1.7031171662602933,-3.6193082098640765,-3.5,0.7580261388790805,0.3567000251817337,0,-0.07470707857641526,0.15876062327543705,0,0,70,0,0,0
691,34.550000000000004,1.7409243974893105,-3.6012750856087736,-3.5,0.7542492901669652,0.3646183531738437,0,-0.07636548931299707,0.15796960193092358,0,0,70,0,0,0
692,34.6,1.7785407167397116,-3.5828470409576507,-3.5,0.7503897295205656,0.37249669665465357,0,-0.07801552571311503,0.15716125743940274,0,0,70,0,0,0
693,34.65,1.815961998958187,-3.564026096753472,-3.5,0.7464478801842008,0.3803341916750183,0,-0.07965700683168331,0.1563356784449573,0,0,70,0,0,0
694,34.7,1.8531841404794474,-3.544814316924859,-3.5,0.7424241744260704,0.3881299787652897,0,-0.08128975266179977,0.15549295548162734,0,0,70,0,0,0
695,34.75,1.8902030594762174,-3.525213808259968,-3.5,0.7383190534908542,0.39588320302956226,0,-0.08291358415448462,0.1546331809634825,0,0,70,0,0,0
696,34.800000000000004,1.92701469640686,-3.5052267201754552,-3.5,0.7341329675513237,0.40359301423942373,0,-0.08452832323831562,0.15375644917448753,0,0,70,0,0,0
697,34.85,1.963615014460566,-3.484855244480756,-3.5,0.7298663756589737,0.41125856692719526,0,-0.08613379283895621,0.15286285625816268,0,0,70,0,0,0
698,34.9,2.0,-3.4641016151377544,-3.5,0.725519745693687,0.4188790204786392,0,-0.08772981689857208,0.15195250020704149,0,0,70,0,0,0
699,34.95,2.0361656630014835,-3.442968108015776,-3.5,0.7210935543124207,0.42645353922515006,0,-0.08931622039513987,0.15102548085192358,0,0,70,0,0,0
700,35.0,2.072108037492523,-3.4214570406420255,-3.5,0.7165882868969374,0.4339812925353916,0,-0.09089282936163927,0.15008189985092757,0,0,70,0,0,0
701,35.050000000000004,2.1078231819867135,-3.399570771947454,-3.5,0.7120044375005803,0.4414614549063813,0,-0.09245947090512995,0.14912186067834374,0,0,70,0,0,0
702,35.1,2.143307179915987,-3.37731170200806,-3.5,0.7073425087940907,0.4488932060540215,0,-0.0940159732257122,0.14814546861328595,0,0,70,0,0,0
703,35.15,2.178556140060106,-3.354682271781697,-3.5,0.7026030120104865,0.45627573100305113,0,-0.09556216563536654,0.14715283072814705,0,0,70,0,0,0
704,35.2,2.213566196973378,-3.3316849628403964,-3.5,0.6977864668889981,0.46360822017641745,0,-0.09709787857667149,0.14614405587685692,0,0,70,0,0,0
705,35.25,2.2483335114085223,-3.3083222970982473,-3.5,0.6928934016180774,0.4708898694840505,0,-0.09862294364139663,0.14511925468294629,0,0,70,0,0,0
706,35.300000000000004,2.2828542707377277,-3.2845968365348157,-3.5,0.6879243527774701,0.4781198804110486,0,-0.10013719358897204,0.14407853952741423,0,0,70,0,0,0
707,35.35,2.3171246893707167,-3.260511182914216,-3.5,0.6828798652793778,0.48529746010523833,0,-0.10164046236482682,0.14302202453640542,0,0,70,0,0,0
708,35.4,2.3511410091698917,-3.2360679774997902,-3.5,0.6777604923087014,0.4924218214641216,0,-0.10313258511859928,0.14194982556869454,0,0,70,0,0,0
709,35.45,2.3848994998624633,-3.211269900764458,-3.5,0.6725667952623763,0.49949218322119243,0,-0.104613398222215,0.1408620602029808,0,0,70,0,0,0
710,35.5,2.4183964594494975,-3.186119672096787,-3.5,0.6672993436878124,0.5065077700316072,0,-0.1060827392878297,0.13975884772499478,0,0,70,0,0,0
711,35.550000000000004,2.451628214611908,-3.1606200495027603,-3.5,0.661958715220432,0.5134678125572153,0,-0.1075404471856379,0.1386403091144165,0,0,70,0,0,0
712,35.6,2.484591121113244,-3.134773829303357,-3.5,0.6565454955203314,0.5203715475509196,0,-0.1089863620615414,0.13750656703160957,0,0,70,0,0,0
713,35.65,2.5172815641993473,-3.1085838458278854,-3.5,0.6510602782080528,0.5272182179403795,0,-0.11042032535467991,0.13635774580416968,0,0,70,0,0,0
714,35.7,2.54969595899476,-3.082052971103156,-3.5,0.6455036647994846,0.5340070729110347,0,-0.11184217981481971,0.13519397141328995,0,0,70,0,0,0
715,35.75,2.5818307508958043,-3.055184114538567,-3.5,0.6398762646399067,0.5407373679884319,0,-0.11325176951959584,0.13401537147994727,0,0,70,0,0,0
716,35.800000000000004,2.6136824159604215,-3.027980222607026,-3.5,0.6341786948371613,0.5474083651198722,0,-0.11464893989161264,0.13282207525090595,0,0,70,0,0,0
717,35.85,2.645247461294611,-3.0004442785218353,-3.5,0.6284115801939817,0.5540193327553466,0,-0.1160335377153944,0.1316142135845444,0,0,70,0,0,0
718,35.9,2.676522425435434,-2.972579301909576,-3.5,0.62257555313948,0.560569545927753,0,-0.11740541115418632,0.13039191893650615,0,0,70,0,0,0
719,35.95,2.707503878730642,-2.944388348478938,-3.5,0.6166712536597878,0.5670582863324037,0,-0.11876440976660645,0.12915532534517313,0,0,70,0,0,0
720,36.0,2.738188423714755,-2.915874509685646,-3.5,0.6106993292278777,0.5734848424057926,0,-0.12011038452314254,0.12790456841696768,0,0,70,0,0,0
721,36.050000000000004,2.7685726954816277,-2.887040912393448,-3.5,0.604660434732562,0.5798485094036249,0,-0.12144318782249466,0.12663978531148182,0,0,70,0,0,0
722,36.1,2.7986533620534626,-2.857890718531212,-3.5,0.5985552324066741,0.5861485894781023,0,-0.12276267350776172,0.1253611147264359,0,0,70,0,0,0
723,36.15,2.82842712474619,-2.8284271247461907,-3.5,0.5923843917544489,0.5923843917544487,0,-0.12406869688246894,0.12406869688246898,0,0,70,0,0,0
724,36.2,2.8578907185312135,-2.7986533620534617,-3.5,0.586148589478102,0.5985552324066744,0,-0.12536111472643596,0.12276267350776165,0,0,70,0,0,0
725,36.25,2.8870409123934495,-2.7685726954816263,-3.5,0.5798485094036246,0.6046604347325623,0,-0.1266397853114819,0.12144318782249461,0,0,70,0,0,0
726,36.300000000000004,2.9158745096856453,-2.738188423714756,-3.5,0.5734848424057929,0.6106993292278775,0,-0.12790456841696762,0.12011038452314261,0,0,70,0,0,0
727,36.35,2.94438834847894,-2.7075038787306407,-3.5,0.5670582863324033,0.616671253659788,0,-0.12915532534517318,0.1187644097666064,0,0,70,0,0,0
728,36.4,2.972579301909577,-2.6765224254354325,-3.5,0.5605695459277525,0.6225755531394802,0,-0.13039191893650617,0.11740541115418626,0,0,70,0,0,0
729,36.45,3.0004442785218366,-2.645247461294609,-3.5,0.5540193327553463,0.6284115801939819,0,-0.13161421358454445,0.11603353771539433,0,0,70,0,0,0
730,36.5,3.0279802226070247,-2.613682415960423,-3.5,0.5474083651198725,0.6341786948371609,0,-0.1328220752509059,0.11464893989161268,0,0,70,0,0,0
731,36.550000000000004,3.055184114538571,-2.5818307508958,-3.5,0.540737367988431,0.6398762646399074,0,-0.13401537147994744,0.11325176951959567,0,0,70,0,0,0
732,36.6,3.082052971103158,-2.5496959589947585,-3.5,0.5340070729110344,0.645503664799485,0,-0.13519397141329,0.11184217981481964,0,0,70,0,0,0
733,36.65,3.108583845827882,-2.5172815641993513,-3.5,0.5272182179403804,0.651060278208052,0,-0.13635774580416954,0.1104203253546801,0,0,70,0,0,0
734,36.7,3.134773829303361,-2.4845911211132394,-3.5,0.5203715475509187,0.6565454955203321,0,-0.1375065670316097,0.10898636206154119,0,0,70,0,0,0
735,36.75,3.1606200495027608,-2.451628214611906,-3.5,0.513467812557215,0.6619587152204323,0,-0.13864030911441652,0.10754044718563784,0,0,70,0,0,0
736,36.800000000000004,3.186119672096785,-2.418396459449499,-3.5,0.5065077700316075,0.6672993436878122,0,-0.13975884772499475,0.10608273928782976,0,0,70,0,0,0
737,36.85,3.2112699007644565,-2.3848994998624646,-3.5,0.4994921832211927,0.6725667952623762,0,-0.14086206020298075,0.10461339822221508,0,0,70,0,0,0
738,36.9,3.23606797749979,-2.3511410091698934,-3.5,0.49242182146412194,0.6777604923087013,0,-0.14194982556869448,0.10313258511859937,0,0,70,0,0,0
739,36.95,3.2605111829142164,-2.3171246893707154,-3.5,0.48529746010523805,0.682879865279378,0,-0.14302202453640545,0.10164046236482678,0,0,70,0,0,0
740,37.0,3.2845968365348153,-2.282854270737729,-3.5,0.47811988041104897,0.6879243527774699,0,-0.1440785395274142,0.10013719358897212,0,0,70,0,0,0
741,37.050000000000004,3.3083222970982487,-2.248333511408521,-3.5,0.47088986948405015,0.6928934016180777,0,-0.14511925468294634,0.09862294364139658,0,0,70,0,0,0
742,37.1,3.3316849628403995,-2.2135661969733738,-3.5,0.4636082201764165,0.6977864668889988,0,-0.14614405587685708,0.09709787857667129,0,0,70,0,0,0
743,37.15,3.3546822717816944,-2.178556140060111,-3.5,0.456275731003052,0.702603012010486,0,-0.14715283072814692,0.09556216563536674,0,0,70,0,0,0
744,37.2,3.377311702008061,-2.1433071799159853,-3.5,0.4488932060540211,0.7073425087940911,0,-0.14814546861328598,0.09401597322571212,0,0,70,0,0,0
745,37.25,3.399570771947457,-2.107823181986708,-3.5,0.4414614549063803,0.7120044375005807,0,-0.14912186067834385,0.09245947090512974,0,0,70,0,0,0
746,37.300000000000004,3.421457040642027,-2.072108037492521,-3.5,0.43398129253539125,0.7165882868969377,0,-0.1500818998509276,0.0908928293616392,0,0,70,0,0,0
747,37.35,3.4429681080157746,-2.036165663001485,-3.5,0.42645353922515034,0.7210935543124205,0,-0.15102548085192352,0.08931622039513994,0,0,70,0,0,0
748,37.4,3.4641016151377553,-1.9999999999999987,-3.5,0.4188790204786388,0.7255197456936873,0,-0.1519525002070415,0.08772981689857201,0,0,70,0,0,0
749,37.45,3.484855244480757,-1.9636150144605644,-3.5,0.411258566927195,0.7298663756589739,0,-0.1528628562581627,0.08613379283895613,0,0,70,0,0,0
750,37.5,3.505226720175454,-1.9270146964068613,-3.5,0.40359301423942406,0.7341329675513235,0,-0.15375644917448744,0.08452832323831569,0,0,70,0,0,0
751,37.550000000000004,3.525213808259969,-1.8902030594762154,-3.5,0.3958832030295619,0.7383190534908545,0,-0.15463318096348252,0.08291358415448455,0,0,70,0,0,0
752,37.6,3.5448143169248603,-1.8531841404794454,-3.5,0.3881299787652894,0.7424241744260708,0,-0.1554929554816274,0.0812897526617997,0,0,70,0,0,0
753,37.65,3.564026096753471,-1.8159619989581879,-3.5,0.3803341916750186,0.7464478801842007,0,-0.15633567844495727,0.07965700683168338,0,0,70,0,0,0
754,37.7,3.58284704095765,-1.7785407167397131,-3.5,0.37249669665465385,0.7503897295205654,0,-0.15716125743940268,0.07801552571311508,0,0,70,0,0,0
755,37.75,3.6012750856087745,-1.7409243974893092,-3.5,0.36461835317384333,0.7542492901669653,0,-0.15796960193092363,0.076365489312997,0,0,70,0,0,0
756,37.800000000000004,3.6193082098640783,-1.7031171662602889,-3.5,0.3567000251817326,0.758026138879081,0,-0.15876062327543713,0.07470707857641504,0,0,70,0,0,0
757,37.85,3.6369444361882737,-1.6651231690416053,-3.5,0.3487425810122175,0.7617198614828902,0,-0.15953423472853884,0.07304047536679505,0,0,70,0,0,0
758,37.9,3.654181830570404,-1.6269465723032006,-3.5,0.34074689328872204,0.7653300529200855,0,-0.16029035145501522,0.07136586244595962,0,0,70,0,0,0
759,37.95,3.671018502735925,-1.5885915625391214,-3.5,0.3327138388285089,0.7688563172924923,0,-0.16102889053814645,0.0696834234540868,0,0,70,0,0,0
760,38.0,3.687452606354002,-1.550062345808413,-3.5,0.32464429854652477,0.7722982679054844,0,-0.16174977098879945,0.0679933428895716,0,0,70,0,0,0
761,38.050000000000004,3.7034823392399803,-1.5113631472738656,-3.5,0.31653915735879495,0.775655527310391,0,-0.16245291375430942,0.06629580608879292,0,0,70,0,0,0
762,38.1,3.7191059435530054,-1.4724982107387115,-3.5,0.30839930408539007,0.778927727345884,0,-0.16313824172714816,0.06459099920579107,0,0,70,0,0,0
763,38.15,3.7343217059888065,-1.433471798181203,-3.5,0.3002256313529479,0.7821145091783558,0,-0.16380567975338062,0.0628791091918519,0,0,70,0,0,0
764,38.2,3.7491279579675663,-1.394288189287262,-3.5,0.2920190354967918,0.7852155233412671,0,-0.16445515464090596,0.06116032377500655,0,0,70,0,0,0
765,38.25,3.7635230758169023,-1.3549516809811657,-3.5,0.2837804164626381,0.7882304297734694,0,-0.16508659516748378,0.05943483143944505,0,0,70,0,0,0
766,38.300000000000004,3.777505480949925,-1.3154665869543323,-3.5,0.2755106777079046,0.7911588978564974,0,-0.16569993208854464,0.057702821404846553,0,0,70,0,0,0
767,38.35,3.791073640038343,-1.2758372371922782,-3.5,0.2672107261026373,0.7940006064508249,0,-0.16629509814478347,0.05596448360562931,0,0,70,0,0,0
768,38.4,3.8042260651806146,-1.2360679774997905,-3.5,0.2588814718300624,0.7967552439310814,0,-0.1668720280695353,0.054220008670122465,0,0,70,0,0,0
769,38.45,3.8169613140651073,-1.1961631690243466,-3.5,0.25052382828677155,0.7994225082202255,0,-0.16743065859593245,0.052469587899660816,0,0,70,0,0,0
770,38.5,3.8292779901282694,-1.1561271877778854,-3.5,0.24213871198256212,0.8020021068226707,0,-0.16797092846384257,0.05071341324760746,0,0,70,0,0,0
771,38.550000000000004,3.841174742707773,-1.115964424156915,-3.5,0.23372704243992856,0.8044937568563602,0,-0.1684927784265863,0.04895167729830329,0,0,70,0,0,0
772,38.6,3.852650267190633,-1.0756792824610601,-3.5,0.22528974209322708,0.8068971850837898,0,-0.16899615125743453,0.047184573245948096,0,0,70,0,0,0
773,38.65,3.863703305156273,-1.0352761804100827,-3.5,0.21682773618752113,0.8092121279419701,0,-0.1694809917558838,0.04541229487341481,0,0,70,0,0,0
774,38.7,3.8743326445145243,-0.9947595486594214,-3.5,0.20834195267711578,0.8114383315713296,0,-0.16994724675370984,0.04363503653099862,0,0,70,0,0,0
775,38.75,3.8845371196385443,-0.9541338303143214,-3.5,0.19983332212379748,0.8135755518435539,0,-0.17039486512079804,0.04185299311510433,0,0,70,0,0,0
776,38.800000000000004,3.894315611492641,-0.9134034804426234,-3.5,0.19130277759479294,0.8156235543883549,0,-0.17082379777075007,0.0400663600468749,0,0,70,0,0,0
777,38.85,3.9036670477549897,-0.8725729655861697,-3.5,0.182751254560438,0.8175821146191755,0,-0.17123399766626732,0.038275333250759346,0,0,70,0,0,0
778,38.9,3.9125904029352228,-0.8316467632710359,-3.5,0.17417969079160106,0.819451017757815,0,-0.1716254198243087,0.03648010913302904,0,0,70,0,0,0
779,38.95,3.9210846984868866,-0.7906293615165058,-3.5,0.16558902625684288,0.8212300588579835,0,-0.17199802132102365,0.034680884560238996,0,0,70,0,0,0
780,39.0,3.9291490029147553,-0.7495252583428987,-3.5,0.15698020301933618,0.8229190428277771,0,-0.17235176129645924,0.03287785683763872,0,0,70,0,0,0
781,39.050000000000004,3.936782431876969,-0.708338961278329,-3.5,0.14835416513356153,0.8245177844510696,0,-0.17268660095904087,0.031071223687536266,0,0,70,0,0,0
782,39.1,3.94398414828202,-0.6670749868644075,-3.5,0.139711858541782,0.8260261084078261,0,-0.17300250358982616,0.02926118322761592,0,0,70,0,0,0
783,39.15,3.950753362380551,-0.6257378601609245,-3.5,0.13105423097030383,0.8274438492933275,0,-0.17329943454653182,0.027447933949211103,0,0,70,0,0,0
784,39.2,3.9570893318519538,-0.5843321142496465,-3.5,0.12238223182555207,0.8287708516363093,0,-0.17357736126733236,0.02563167469553849,0,0,70,0,0,0
785,39.25,3.9629913618857744,-0.5428622897372166,-3.5,0.11369681208995823,0.8300069699160105,0,-0.1738362532744309,0.0238126046398928,0,0,70,0,0,0
786,39.300000000000004,3.968458805257912,-0.5013329342572151,-3.5,0.10499892421767212,0.8311520685781322,0,-0.1740760821774013,0.021990923263804675,0,0,70,0,0,0
787,39.35,3.9734910624015853,-0.45974860197146716,-3.5,0.09628952203011594,0.8322060220497016,0,-0.17429682167630187,0.020166830335165652,0,0,70,0,0,0
788,39.4,3.978087581473093,-0.41811385307061366,-3.5,0.08756956061138414,0.8331687147528438,0,-0.17449844756455893,0.018340525886320704,0,0,70,0,0,0
789,39.45,3.98224785841232,-0.37643325327405613,-3.5,0.07883999620351205,0.8340400411174554,0,-0.1746809377316218,0.016512210192133375,0,0,70,0,0,0
790,39.5,3.9859714369980175,-0.3347113733292634,-3.5,0.07010178610161096,0.8348199055927814,0,-0.17484427216538712,0.014682083748022937,0,0,70,0,0,0
791,39.550000000000004,3.989257908897832,-0.29295278851052725,-3.5,0.06135588854888778,0.835508222657894,0,-0.17498843295439367,0.012850347247977331,0,0,70,0,0,0
792,39.6,3.992106913713087,-0.2511620781172495,-3.5,0.05260326263156645,0.8361049168310704,0,-0.17511340428978636,0.011017201562545575,0,0,70,0,0,0
793,39.65,3.994518139018295,-0.20934382497177748,-3.5,0.043844868173714906,0.8366099226780699,0,-0.17521917246704996,0.00918284771681038,0,0,70,0,0,0
794,39.7,3.9964913203954335,-0.1675026149167997,-3.5,0.035081665631979876,0.837023184819311,0,-0.17530572588751195,0.007347486868341433,0,0,70,0,0,0
795,39.75,3.9980262414629264,-0.1256430363125099,-3.5,0.026314615990273113,0.8373446579359427,0,-0.1753730550596144,0.005511320285138567,0,0,70,0,0,0
796,39.800000000000004,3.999122733899382,-0.08376967953342716,-3.5,0.017544680654385737,0.8375743067748151,0,-0.17542115259995486,0.0036745493235598127,0,0,70,0,0,0
797,39.85,3.9997806774620486,-0.041887136464981545,-3.5,0.008772821346553277,0.8377121061523451,0,-0.17545001323409604,0.001837375406239166,0,0,70,0,0,0
798,39.9,3.9997806774620486,-0.041887136464981545,-3.5,0,0,0,0,0,0,0,60,0,0,0
799,39.949999999999996,3.9997806774620486,-0.041887136464981545,-3.5,0,0,0,0,0,0,0,60,0,0,0
800,40.0,3.9997806774620486,-0.041887136464981545,-3.5,0,0,0,0,0,0,0,60,0,0,0
801,40.05,3.9997806774620486,-0.041887136464981545,-3.5,0,0,0,0,0,0,0,60,0,0,0
802,40.1,3.9997806774620486,-0.041887136464981545,-3.5,0,0,0,0,0,0,0,60,0,0,0
803,40.15,3.9997806774620486,-0.041887136464981545,-3.5,0,0,0,0,0,0,0,60,0,0,0
804,40.199999999999996,3.9997806774620486,-0.041887136464981545,-3.5,0,0,0,0,0,0,0,60,0,0,0
805,40.25,3.9997806774620486,-0.041887136464981545,-3.5,0,0,0,0,0,0,0,60,0,0,0
806,40.3,3.9997806774620486,-0.041887136464981545,-3.5,0,0,0,0,0,0,0,60,0,0,0
807,40.35,3.9997806774620486,-0.041887136464981545,-3.5,0,0,0,0,0,0,0,60,0,0,0
808,40.4,3.9997806774620486,-0.041887136464981545,-3.5,0,0,0,0,0,0,0,60,0,0,0
809,40.449999999999996,3.9997806774620486,-0.041887136464981545,-3.5,0,0,0,0,0,0,0,60,0,0,0
810,40.5,3.9997806774620486,-0.041887136464981545,-3.5,0,0,0,0,0,0,0,60,0,0,0
811,40.55,3.9997806774620486,-0.041887136464981545,-3.5,0,0,0,0,0,0,0,60,0,0,0
812,40.6,3.9997806774620486,-0.041887136464981545,-3.5,0,0,0,0,0,0,0,60,0,0,0
813,40.65,3.9997806774620486,-0.041887136464981545,-3.5,0,0,0,0,0,0,0,60,0,0,0
814,40.699999999999996,3.9997806774620486,-0.041887136464981545,-3.5,0,0,0,0,0,0,0,60,0,0,0
815,40.75,3.9997806774620486,-0.041887136464981545,-3.5,0,0,0,0,0,0,0,60,0,0,0
816,40.8,3.9997806774620486,-0.041887136464981545,-3.5,0,0,0,0,0,0,0,60,0,0,0
817,40.85,3.9997806774620486,-0.041887136464981545,-3.5,0,0,0,0,0,0,0,60,0,0,0
818,40.9,3.9997806774620486,-0.041887136464981545,-3.5,0,0,0,0,0,0,0,60,0,0,0
819,40.949999999999996,3.9997806774620486,-0.041887136464981545,-3.5,0,0,0,0,0,0,0,60,0,0,0
820,41.0,3.9997806774620486,-0.041887136464981545,-3.5,0,0,0,0,0,0,0,60,0,0,0
821,41.05,3.9997806774620486,-0.041887136464981545,-3.5,0,0,0,0,0,0,0,60,0,0,0
822,41.1,3.9997806774620486,-0.041887136464981545,-3.5,0,0,0,0,0,0,0,60,0,0,0
823,41.15,3.9997806774620486,-0.041887136464981545,-3.5,0,0,0,0,0,0,0,60,0,0,0
824,41.199999999999996,3.9997806774620486,-0.041887136464981545,-3.5,0,0,0,0,0,0,0,60,0,0,0
825,41.25,3.9997806774620486,-0.041887136464981545,-3.5,0,0,0,0,0,0,0,60,0,0,0
826,41.3,3.9997806774620486,-0.041887136464981545,-3.5,0,0,0,0,0,0,0,60,0,0,0
827,41.35,3.9997806774620486,-0.041887136464981545,-3.5,0,0,0,0,0,0,0,60,0,0,0
828,41.4,3.9997806774620486,-0.041887136464981545,-3.5,0,0,0,0,0,0,0,60,0,0,0
829,41.449999999999996,3.9997806774620486,-0.041887136464981545,-3.5,0,0,0,0,0,0,0,60,0,0,0
830,41.5,3.9997806774620486,-0.041887136464981545,-3.5,0,0,0,0,0,0,0,60,0,0,0
831,41.55,3.9997806774620486,-0.041887136464981545,-3.5,0,0,0,0,0,0,0,60,0,0,0
832,41.6,3.9997806774620486,-0.041887136464981545,-3.5,0,0,0,0,0,0,0,60,0,0,0
833,41.65,3.9997806774620486,-0.041887136464981545,-3.5,0,0,0,0,0,0,0,60,0,0,0
834,41.699999999999996,3.9997806774620486,-0.041887136464981545,-3.5,0,0,0,0,0,0,0,60,0,0,0
835,41.75,3.9997806774620486,-0.041887136464981545,-3.5,0,0,0,0,0,0,0,60,0,0,0
836,41.8,3.9997806774620486,-0.041887136464981545,-3.5,0,0,0,0,0,0,0,60,0,0,0
837,41.85,3.9997806774620486,-0.041887136464981545,-3.5,0,0,0,0,0,0,0,60,0,0,0
838,41.9,3.9997806774620486,-0.041887136464981545,-3.5,0,0,0,0,0,0,0,80,0,0,0
839,41.949999999999996,3.9997806774620486,-0.041887136464981545,-3.5,0,0,0,0,0,0,0,80,0,0,0
840,42.0,3.9997806774620486,-0.041887136464981545,-3.5,0,0,0,0,0,0,0,80,0,0,0
841,42.05,3.9997806774620486,-0.041887136464981545,-3.5,0,0,0,0,0,0,0,80,0,0,0
842,42.1,3.9997806774620486,-0.041887136464981545,-3.5,0,0,0,0,0,0,0,80,0,0,0
843,42.15,3.9997806774620486,-0.041887136464981545,-3.5,0,0,0,0,0,0,0,80,0,0,0
844,42.199999999999996,3.9997806774620486,-0.041887136464981545,-3.5,0,0,0,0,0,0,0,80,0,0,0
845,42.25,3.9997806774620486,-0.041887136464981545,-3.5,0,0,0,0,0,0,0,80,0,0,0
846,42.3,3.9997806774620486,-0.041887136464981545,-3.5,0,0,0,0,0,0,0,80,0,0,0
847,42.35,3.9997806774620486,-0.041887136464981545,-3.5,0,0,0,0,0,0,0,80,0,0,0
848,42.4,3.9997806774620486,-0.041887136464981545,-3.5,0,0,0,0,0,0,0,80,0,0,0
849,42.449999999999996,3.9997806774620486,-0.041887136464981545,-3.5,0,0,0,0,0,0,0,80,0,0,0
850,42.5,3.9997806774620486,-0.041887136464981545,-3.5,0,0,0,0,0,0,0,80,0,0,0
851,42.55,3.9997806774620486,-0.041887136464981545,-3.5,0,0,0,0,0,0,0,80,0,0,0
852,42.6,3.9997806774620486,-0.041887136464981545,-3.5,0,0,0,0,0,0,0,80,0,0,0
853,42.65,3.9997806774620486,-0.041887136464981545,-3.5,0,0,0,0,0,0,0,80,0,0,0
854,42.699999999999996,3.9997806774620486,-0.041887136464981545,-3.5,0,0,0,0,0,0,0,80,0,0,0
855,42.75,3.9997806774620486,-0.041887136464981545,-3.5,0,0,0,0,0,0,0,80,0,0,0
856,42.8,3.9997806774620486,-0.041887136464981545,-3.5,0,0,0,0,0,0,0,80,0,0,0
857,42.85,3.9997806774620486,-0.041887136464981545,-3.5,0,0,0,0,0,0,0,80,0,0,0
858,42.9,3.9997806774620486,-0.041887136464981545,-3.5,0,0,0,0,0,0,0,80,0,0,0
859,42.949999999999996,3.9997806774620486,-0.041887136464981545,-3.5,0,0,0,0,0,0,0,80,0,0,0
860,43.0,3.9997806774620486,-0.041887136464981545,-3.5,0,0,0,0,0,0,0,80,0,0,0
861,43.05,3.9997806774620486,-0.041887136464981545,-3.5,0,0,0,0,0,0,0,80,0,0,0
862,43.1,3.9997806774620486,-0.041887136464981545,-3.5,0,0,0,0,0,0,0,80,0,0,0
863,43.15,3.9997806774620486,-0.041887136464981545,-3.5,0,0,0,0,0,0,0,80,0,0,0
864,43.199999999999996,3.9997806774620486,-0.041887136464981545,-3.5,0,0,0,0,0,0,0,80,0,0,0
865,43.25,3.9997806774620486,-0.041887136464981545,-3.5,0,0,0,0,0,0,0,80,0,0,0
866,43.3,3.9997806774620486,-0.041887136464981545,-3.5,0,0,0,0,0,0,0,80,0,0,0
867,43.35,3.9997806774620486,-0.041887136464981545,-3.5,0,0,0,0,0,0,0,80,0,0,0
868,43.4,3.9997806774620486,-0.041887136464981545,-3.5,0,0,0,0,0,0,0,80,0,0,0
869,43.449999999999996,3.9997806774620486,-0.041887136464981545,-3.5,0,0,0,0,0,0,0,80,0,0,0
870,43.5,3.9997806774620486,-0.041887136464981545,-3.5,0,0,0,0,0,0,0,80,0,0,0
871,43.55,3.9997806774620486,-0.041887136464981545,-3.5,0,0,0,0,0,0,0,80,0,0,0
872,43.6,3.9997806774620486,-0.041887136464981545,-3.5,0,0,0,0,0,0,0,80,0,0,0
873,43.65,3.9997806774620486,-0.041887136464981545,-3.5,0,0,0,0,0,0,0,80,0,0,0
874,43.699999999999996,3.9997806774620486,-0.041887136464981545,-3.5,0,0,0,0,0,0,0,80,0,0,0
875,43.75,3.9997806774620486,-0.041887136464981545,-3.5,0,0,0,0,0,0,0,80,0,0,0
876,43.8,3.9997806774620486,-0.041887136464981545,-3.5,0,0,0,0,0,0,0,80,0,0,0
877,43.85,3.9997806774620486,-0.041887136464981545,-3.5,0,0,0,0,0,0,0,80,0,0,0
878,43.9,3.9997806774620486,-0.041887136464981545,-3.5,-2.4998629234137804,0.026179460290613465,0.0,0,0,0,0,90,0,0,0
879,43.949999999999996,3.8747875312913598,-0.04057816345045087,-3.5,-2.4998629234137804,0.026179460290613465,0.0,0,0,0,0,90,0,0,0
880,44.0,3.7497943851206705,-0.0392691904359202,-3.5,-2.4998629234137804,0.026179460290613465,0.0,0,0,0,0,90,0,0,0
881,44.05,3.6248012389499813,-0.037960217421389525,-3.5,-2.4998629234137804,0.026179460290613465,0.0,0,0,0,0,90,0,0,0
882,44.1,3.4998080927792925,-0.03665124440685885,-3.5,-2.4998629234137804,0.026179460290613465,0.0,0,0,0,0,90,0,0,0
883,44.15,3.3748149466086037,-0.03534227139232818,-3.5,-2.4998629234137804,0.026179460290613465,0.0,0,0,0,0,90,0,0,0
884,44.199999999999996,3.2498218004379145,-0.034033298377797505,-3.5,-2.4998629234137804,0.026179460290613465,0.0,0,0,0,0,90,0,0,0
885,44.25,3.1248286542672252,-0.03272432536326683,-3.5,-2.4998629234137804,0.026179460290613465,0.0,0,0,0,0,90,0,0,0
886,44.3,2.9998355080965364,-0.03141535234873616,-3.5,-2.4998629234137804,0.026179460290613465,0.0,0,0,0,0,90,0,0,0
887,44.35,2.8748423619258476,-0.030106379334205485,-3.5,-2.4998629234137804,0.026179460290613465,0.0,0,0,0,0,90,0,0,0
888,44.4,2.7498492157551584,-0.028797406319674812,-3.5,-2.4998629234137804,0.026179460290613465,0.0,0,0,0,0,90,0,0,0
889,44.449999999999996,2.624856069584469,-0.02748843330514414,-3.5,-2.4998629234137804,0.026179460290613465,0.0,0,0,0,0,90,0,0,0
890,44.5,2.4998629234137804,-0.026179460290613465,-3.5,-2.4998629234137804,0.026179460290613465,0.0,0,0,0,0,90,0,0,0
891,44.55,2.3748697772430916,-0.024870487276082792,-3.5,-2.4998629234137804,0.026179460290613465,0.0,0,0,0,0,90,0,0,0
892,44.6,2.2498766310724023,-0.02356151426155212,-3.5,-2.4998629234137804,0.026179460290613465,0.0,0,0,0,0,90,0,0,0
893,44.65,2.124883484901713,-0.022252541247021446,-3.5,-2.4998629234137804,0.026179460290613465,0.0,0,0,0,0,90,0,0,0
894,44.699999999999996,1.9998903387310243,-0.020943568232490772,-3.5,-2.4998629234137804,0.026179460290613465,0.0,0,0,0,0,90,0,0,0
895,44.75,1.8748971925603355,-0.0196345952179601,-3.5,-2.4998629234137804,0.026179460290613465,0.0,0,0,0,0,90,0,0,0
896,44.8,1.7499040463896463,-0.018325622203429426,-3.5,-2.4998629234137804,0.026179460290613465,0.0,0,0,0,0,90,0,0,0
897,44.85,1.624910900218957,-0.017016649188898753,-3.5,-2.4998629234137804,0.026179460290613465,0.0,0,0,0,0,90,0,0,0
898,44.9,1.4999177540482682,-0.01570767617436808,-3.5,-2.4998629234137804,0.026179460290613465,0.0,0,0,0,0,90,0,0,0
899,44.949999999999996,1.3749246078775794,-0.014398703159837406,-3.5,-2.4998629234137804,0.026179460290613465,0.0,0,0,0,0,90,0,0,0
900,45.0,1.2499314617068902,-0.013089730145306733,-3.5,-2.4998629234137804,0.026179460290613465,0.0,0,0,0,0,90,0,0,0
901,45.05,1.124938315536201,-0.01178075713077606,-3.5,-2.4998629234137804,0.026179460290613465,0.0,0,0,0,0,90,0,0,0
902,45.1,0.9999451693655121,-0.010471784116245386,-3.5,-2.4998629234137804,0.026179460290613465,0.0,0,0,0,0,90,0,0,0
903,45.15,0.8749520231948233,-0.009162811101714713,-3.5,-2.4998629234137804,0.026179460290613465,0.0,0,0,0,0,90,0,0,0
904,45.199999999999996,0.7499588770241341,-0.00785383808718404,-3.5,-2.4998629234137804,0.026179460290613465,0.0,0,0,0,0,90,0,0,0
905,45.25,0.6249657308534449,-0.006544865072653366,-3.5,-2.4998629234137804,0.026179460290613465,0.0,0,0,0,0,90,0,0,0
906,45.3,0.49997258468275607,-0.005235892058122693,-3.5,-2.4998629234137804,0.026179460290613465,0.0,0,0,0,0,90,0,0,0
907,45.35,0.3749794385120673,-0.00392691904359202,-3.5,-2.4998629234137804,0.026179460290613465,0.0,0,0,0,0,90,0,0,0
908,45.4,0.24998629234137804,-0.0026179460290613465,-3.5,-2.4998629234137804,0.026179460290613465,0.0,0,0,0,0,90,0,0,0
909,45.449999999999996,0.1249931461706888,-0.0013089730145306733,-3.5,-2.4998629234137804,0.026179460290613465,0.0,0,0,0,0,90,0,0,0
