idx,t,px,py,pz,vx,vy,vz,ax,ay,az,yaw,mode,ledr,ledg,ledb
0,0.0,0,0,-0.0,0.0,0.0,-2.0,0,0,0,0,10,0,0,0
1,0.05,0,0,-0.1,0.0,0.0,-2.0,0,0,0,0,10,0,0,0
2,0.1,0,0,-0.2,0.0,0.0,-2.0,0,0,0,0,10,0,0,0
3,0.15000000000000002,0,0,-0.30000000000000004,0.0,0.0,-2.0,0,0,0,0,10,0,0,0
4,0.2,0,0,-0.4,0.0,0.0,-2.0,0,0,0,0,10,0,0,0
5,0.25,0,0,-0.5,0.0,0.0,-2.0,0,0,0,0,10,0,0,0
6,0.30000000000000004,0,0,-0.6000000000000001,0.0,0.0,-2.0,0,0,0,0,10,0,0,0
7,0.35000000000000003,0,0,-0.7000000000000001,0.0,0.0,-2.0,0,0,0,0,10,0,0,0
8,0.4,0,0,-0.8,0.0,0.0,-2.0,0,0,0,0,10,0,0,0
9,0.45,0,0,-0.9,0.0,0.0,-2.0,0,0,0,0,10,0,0,0
10,0.5,0,0,-1.0,0.0,0.0,-2.0,0,0,0,0,10,0,0,0
11,0.55,0,0,-1.1,0.0,0.0,-2.0,0,0,0,0,10,0,0,0
12,0.6000000000000001,0,0,-1.2000000000000002,0.0,0.0,-2.0,0,0,0,0,10,0,0,0
13,0.65,0,0,-1.3,0.0,0.0,-2.0,0,0,0,0,10,0,0,0
14,0.7000000000000001,0,0,-1.4000000000000001,0.0,0.0,-2.0,0,0,0,0,10,0,0,0
15,0.75,0,0,-1.5,0.0,0.0,-2.0,0,0,0,0,10,0,0,0
16,0.8,0,0,-1.6,0.0,0.0,-2.0,0,0,0,0,10,0,0,0
17,0.8500000000000001,0,0,-1.7000000000000002,0.0,0.0,-2.0,0,0,0,0,10,0,0,0
18,0.9,0,0,-1.8,0.0,0.0,-2.0,0,0,0,0,10,0,0,0
19,0.9500000000000001,0,0,-1.9000000000000001,0.0,0.0,-2.0,0,0,0,0,10,0,0,0
20,1.0,0,0,-2.0,0.0,0.0,-2.0,0,0,0,0,10,0,0,0
21,1.05,0,0,-2.1,0.0,0.0,-2.0,0,0,0,0,10,0,0,0
22,1.1,0,0,-2.2,0.0,0.0,-2.0,0,0,0,0,10,0,0,0
23,1.1500000000000001,0,0,-2.3000000000000003,0.0,0.0,-2.0,0,0,0,0,10,0,0,0
24,1.2000000000000002,0,0,-2.4000000000000004,0.0,0.0,-2.0,0,0,0,0,10,0,0,0
25,1.25,0,0,-2.5,0.0,0.0,-2.0,0,0,0,0,10,0,0,0
26,1.3,0,0,-2.6,0.0,0.0,-2.0,0,0,0,0,10,0,0,0
27,1.35,0,0,-2.7,0.0,0.0,-2.0,0,0,0,0,10,0,0,0
28,1.4000000000000001,0,0,-2.8000000000000003,0.0,0.0,-2.0,0,0,0,0,10,0,0,0
29,1.4500000000000002,0,0,-2.9000000000000004,0.0,0.0,-2.0,0,0,0,0,10,0,0,0
30,1.5,0,0,-3.0,0.0,0.0,-2.0,0,0,0,0,10,0,0,0
31,1.55,0,0,-3.1,0.0,0.0,-2.0,0,0,0,0,10,0,0,0
32,1.6,0,0,-3.2,0.0,0.0,-2.0,0,0,0,0,10,0,0,0
33,1.6500000000000001,0,0,-3.3000000000000003,0.0,0.0,-2.0,0,0,0,0,10,0,0,0
34,1.7000000000000002,0,0,-3.4000000000000004,0.0,0.0,-2.0,0,0,0,0,10,0,0,0
35,1.75,0,0,-3.5,0.0,0.0,-2.0,0,0,0,0,10,0,0,0
36,1.8,0,0,-3.6,0.0,0.0,-2.0,0,0,0,0,10,0,0,0
37,1.85,0,0,-3.7,0.0,0.0,-2.0,0,0,0,0,10,0,0,0
38,1.9000000000000001,0,0,-3.8000000000000003,0.0,0.0,-2.0,0,0,0,0,10,0,0,0
39,1.9500000000000002,0,0,-3.9000000000000004,0.0,0.0,-2.0,0,0,0,0,10,0,0,0
40,2.0,0,0,-4.0,0.0,0.0,-2.0,0,0,0,0,10,0,0,0
41,2.0500000000000003,0,0,-4.1000000000000005,0.0,0.0,-2.0,0,0,0,0,10,0,0,0
42,2.1,0,0,-4.2,0.0,0.0,-2.0,0,0,0,0,10,0,0,0
43,2.15,0,0,-4.3,0.0,0.0,-2.0,0,0,0,0,10,0,0,0
44,2.2,0,0,-4.4,0.0,0.0,-2.0,0,0,0,0,10,0,0,0
45,2.25,0,0,-4.5,0.0,0.0,-2.0,0,0,0,0,10,0,0,0
46,2.3000000000000003,0,0,-4.6000000000000005,0.0,0.0,-2.0,0,0,0,0,10,0,0,0
47,2.35,0,0,-4.7,0.0,0.0,-2.0,0,0,0,0,10,0,0,0
48,2.4000000000000004,0,0,-4.800000000000001,0.0,0.0,-2.0,0,0,0,0,10,0,0,0
49,2.45,0,0,-4.9,0.0,0.0,-2.0,0,0,0,0,10,0,0,0
49,2.45,0,0,-4.9,0,0,0,0,0,0,0,20,0,0,0
50,2.5,0,0,-4.9,0,0,0,0,0,0,0,20,0,0,0
51,2.5500000000000003,0,0,-4.9,0,0,0,0,0,0,0,20,0,0,0
52,2.6,0,0,-4.9,0,0,0,0,0,0,0,20,0,0,0
53,2.6500000000000004,0,0,-4.9,0,0,0,0,0,0,0,20,0,0,0
54,2.7,0,0,-4.9,0,0,0,0,0,0,0,20,0,0,0
55,2.75,0,0,-4.9,0,0,0,0,0,0,0,20,0,0,0
56,2.8000000000000003,0,0,-4.9,0,0,0,0,0,0,0,20,0,0,0
57,2.85,0,0,-4.9,0,0,0,0,0,0,0,20,0,0,0
58,2.9000000000000004,0,0,-4.9,0,0,0,0,0,0,0,20,0,0,0
59,2.95,0,0,-4.9,0,0,0,0,0,0,0,20,0,0,0
60,3.0,0,0,-4.9,0,0,0,0,0,0,0,20,0,0,0
61,3.0500000000000003,0,0,-4.9,0,0,0,0,0,0,0,20,0,0,0
62,3.1,0,0,-4.9,0,0,0,0,0,0,0,20,0,0,0
63,3.1500000000000004,0,0,-4.9,0,0,0,0,0,0,0,20,0,0,0
64,3.2,0,0,-4.9,0,0,0,0,0,0,0,20,0,0,0
65,3.25,0,0,-4.9,0,0,0,0,0,0,0,20,0,0,0
66,3.3000000000000003,0,0,-4.9,0,0,0,0,0,0,0,20,0,0,0
67,3.35,0,0,-4.9,0,0,0,0,0,0,0,20,0,0,0
68,3.4000000000000004,0,0,-4.9,0,0,0,0,0,0,0,20,0,0,0
69,3.45,0,0,-4.9,0,0,0,0,0,0,0,20,0,0,0
70,3.5,0,0,-4.9,0,0,0,0,0,0,0,20,0,0,0
71,3.5500000000000003,0,0,-4.9,0,0,0,0,0,0,0,20,0,0,0
72,3.6000000000000005,0,0,-4.9,0,0,0,0,0,0,0,20,0,0,0
73,3.6500000000000004,0,0,-4.9,0,0,0,0,0,0,0,20,0,0,0
74,3.7,0,0,-4.9,0,0,0,0,0,0,0,20,0,0,0
75,3.75,0,0,-4.9,0,0,0,0,0,0,0,20,0,0,0
76,3.8000000000000003,0,0,-4.9,0,0,0,0,0,0,0,20,0,0,0
77,3.8500000000000005,0,0,-4.9,0,0,0,0,0,0,0,20,0,0,0
78,3.9000000000000004,0,0,-4.9,0,0,0,0,0,0,0,20,0,0,0
79,3.95,0,0,-4.9,0,0,0,0,0,0,0,20,0,0,0
80,4.0,0,0,-4.9,0,0,0,0,0,0,0,20,0,0,0
81,4.050000000000001,0,0,-4.9,0,0,0,0,0,0,0,20,0,0,0
82,4.1000000000000005,0,0,-4.9,0,0,0,0,0,0,0,20,0,0,0
83,4.15,0,0,-4.9,0,0,0,0,0,0,0,20,0,0,0
84,4.2,0,0,-4.9,0,0,0,0,0,0,0,20,0,0,0
85,4.25,0,0,-4.9,0,0,0,0,0,0,0,20,0,0,0
86,4.300000000000001,0,0,-4.9,0,0,0,0,0,0,0,20,0,0,0
87,4.3500000000000005,0,0,-4.9,0,0,0,0,0,0,0,20,0,0,0
88,4.4,0,0,-4.9,0,0,0,0,0,0,0,20,0,0,0
89,4.45,0.0,0.0,-4.9,0.0,0.0,-1.5,0,0,0,0,30,0,0,0
90,4.516666666666667,0.0,0.0,-5.0,0,0,0,0,0,0,0,40,0,0,0
91,4.566666666666666,0.0,0.0,-5.0,0,0,0,0,0,0,0,40,0,0,0
92,4.616666666666666,0.0,0.0,-5.0,0,0,0,0,0,0,0,40,0,0,0
93,4.666666666666667,0.0,0.0,-5.0,0,0,0,0,0,0,0,40,0,0,0
94,4.716666666666667,0.0,0.0,-5.0,0,0,0,0,0,0,0,40,0,0,0
95,4.766666666666667,0.0,0.0,-5.0,0,0,0,0,0,0,0,40,0,0,0
96,4.816666666666666,0.0,0.0,-5.0,0,0,0,0,0,0,0,40,0,0,0
97,4.866666666666666,0.0,0.0,-5.0,0,0,0,0,0,0,0,40,0,0,0
98,4.916666666666667,0.0,0.0,-5.0,0,0,0,0,0,0,0,40,0,0,0
99,4.966666666666667,0.0,0.0,-5.0,0,0,0,0,0,0,0,40,0,0,0
100,5.016666666666667,0.0,0.0,-5.0,0,0,0,0,0,0,0,40,0,0,0
101,5.066666666666666,0.0,0.0,-5.0,0,0,0,0,0,0,0,40,0,0,0
102,5.116666666666667,0.0,0.0,-5.0,0,0,0,0,0,0,0,40,0,0,0
103,5.166666666666667,0.0,0.0,-5.0,0,0,0,0,0,0,0,40,0,0,0
104,5.216666666666667,0.0,0.0,-5.0,0,0,0,0,0,0,0,40,0,0,0
105,5.266666666666667,0.0,0.0,-5.0,0,0,0,0,0,0,0,40,0,0,0
106,5.316666666666666,0.0,0.0,-5.0,0,0,0,0,0,0,0,40,0,0,0
107,5.366666666666667,0.0,0.0,-5.0,0,0,0,0,0,0,0,40,0,0,0
108,5.416666666666667,0.0,0.0,-5.0,0,0,0,0,0,0,0,40,0,0,0
109,5.466666666666667,0.0,0.0,-5.0,0,0,0,0,0,0,0,40,0,0,0
110,5.516666666666667,0.0,0.0,-5.0,0,0,0,0,0,0,0,40,0,0,0
111,5.566666666666666,0.0,0.0,-5.0,0,0,0,0,0,0,0,40,0,0,0
112,5.616666666666667,0.0,0.0,-5.0,0,0,0,0,0,0,0,40,0,0,0
113,5.666666666666667,0.0,0.0,-5.0,0,0,0,0,0,0,0,40,0,0,0
114,5.716666666666667,0.0,0.0,-5.0,0,0,0,0,0,0,0,40,0,0,0
115,5.766666666666667,0.0,0.0,-5.0,0,0,0,0,0,0,0,40,0,0,0
116,5.816666666666666,0.0,0.0,-5.0,0,0,0,0,0,0,0,40,0,0,0
117,5.866666666666667,0.0,0.0,-5.0,0,0,0,0,0,0,0,40,0,0,0
118,5.916666666666667,0.0,0.0,-5.0,0,0,0,0,0,0,0,40,0,0,0
119,5.966666666666667,0.0,0.0,-5.0,0,0,0,0,0,0,0,40,0,0,0
120,6.016666666666667,0.0,0.0,-5.0,0,0,0,0,0,0,0,40,0,0,0
121,6.066666666666666,0.0,0.0,-5.0,0,0,0,0,0,0,0,40,0,0,0
122,6.116666666666667,0.0,0.0,-5.0,0,0,0,0,0,0,0,40,0,0,0
123,6.166666666666667,0.0,0.0,-5.0,0,0,0,0,0,0,0,40,0,0,0
124,6.216666666666667,0.0,0.0,-5.0,0,0,0,0,0,0,0,40,0,0,0
125,6.266666666666667,0.0,0.0,-5.0,0,0,0,0,0,0,0,40,0,0,0
126,6.316666666666666,0.0,0.0,-5.0,0,0,0,0,0,0,0,40,0,0,0
127,6.366666666666667,0.0,0.0,-5.0,0,0,0,0,0,0,0,40,0,0,0
128,6.416666666666667,0.0,0.0,-5.0,0,0,0,0,0,0,0,40,0,0,0
129,6.466666666666667,0.0,0.0,-5.0,0,0,0,0,0,0,0,40,0,0,0
130,6.516666666666667,0.0,0.0,-5.0,1.5,0.0,0.0,0,0,0,0,50,0,0,0
131,6.566666666666666,0.07575757575757576,0.0,-5.0,1.5,0.0,0.0,0,0,0,0,50,0,0,0
132,6.616666666666666,0.15151515151515152,0.0,-5.0,1.5,0.0,0.0,0,0,0,0,50,0,0,0
133,6.666666666666667,0.2272727272727273,0.0,-5.0,1.5,0.0,0.0,0,0,0,0,50,0,0,0
134,6.716666666666667,0.30303030303030304,0.0,-5.0,1.5,0.0,0.0,0,0,0,0,50,0,0,0
135,6.766666666666667,0.3787878787878788,0.0,-5.0,1.5,0.0,0.0,0,0,0,0,50,0,0,0
136,6.816666666666666,0.4545454545454546,0.0,-5.0,1.5,0.0,0.0,0,0,0,0,50,0,0,0
137,6.866666666666666,0.5303030303030303,0.0,-5.0,1.5,0.0,0.0,0,0,0,0,50,0,0,0
138,6.916666666666667,0.6060606060606061,0.0,-5.0,1.5,0.0,0.0,0,0,0,0,50,0,0,0
139,6.966666666666667,0.6818181818181818,0.0,-5.0,1.5,0.0,0.0,0,0,0,0,50,0,0,0
140,7.016666666666667,0.7575757575757576,0.0,-5.0,1.5,0.0,0.0,0,0,0,0,50,0,0,0
141,7.066666666666666,0.8333333333333333,0.0,-5.0,1.5,0.0,0.0,0,0,0,0,50,0,0,0
142,7.116666666666667,0.9090909090909092,0.0,-5.0,1.5,0.0,0.0,0,0,0,0,50,0,0,0
143,7.166666666666667,0.9848484848484849,0.0,-5.0,1.5,0.0,0.0,0,0,0,0,50,0,0,0
144,7.216666666666667,1.0606060606060606,0.0,-5.0,1.5,0.0,0.0,0,0,0,0,50,0,0,0
145,7.266666666666667,1.1363636363636362,0.0,-5.0,1.5,0.0,0.0,0,0,0,0,50,0,0,0
146,7.316666666666666,1.2121212121212122,0.0,-5.0,1.5,0.0,0.0,0,0,0,0,50,0,0,0
147,7.366666666666667,1.2878787878787878,0.0,-5.0,1.5,0.0,0.0,0,0,0,0,50,0,0,0
148,7.416666666666667,1.3636363636363635,0.0,-5.0,1.5,0.0,0.0,0,0,0,0,50,0,0,0
149,7.466666666666667,1.4393939393939394,0.0,-5.0,1.5,0.0,0.0,0,0,0,0,50,0,0,0
150,7.516666666666667,1.5151515151515151,0.0,-5.0,1.5,0.0,0.0,0,0,0,0,50,0,0,0
151,7.566666666666666,1.5909090909090908,0.0,-5.0,1.5,0.0,0.0,0,0,0,0,50,0,0,0
152,7.616666666666667,1.6666666666666665,0.0,-5.0,1.5,0.0,0.0,0,0,0,0,50,0,0,0
153,7.666666666666667,1.7424242424242427,0.0,-5.0,1.5,0.0,0.0,0,0,0,0,50,0,0,0
154,7.716666666666667,1.8181818181818183,0.0,-5.0,1.5,0.0,0.0,0,0,0,0,50,0,0,0
155,7.766666666666667,1.893939393939394,0.0,-5.0,1.5,0.0,0.0,0,0,0,0,50,0,0,0
156,7.816666666666666,1.9696969696969697,0.0,-5.0,1.5,0.0,0.0,0,0,0,0,50,0,0,0
157,7.866666666666667,2.0454545454545454,0.0,-5.0,1.5,0.0,0.0,0,0,0,0,50,0,0,0
158,7.916666666666667,2.121212121212121,0.0,-5.0,1.5,0.0,0.0,0,0,0,0,50,0,0,0
159,7.966666666666667,2.196969696969697,0.0,-5.0,1.5,0.0,0.0,0,0,0,0,50,0,0,0
160,8.016666666666666,2.2727272727272725,0.0,-5.0,1.5,0.0,0.0,0,0,0,0,50,0,0,0
161,8.066666666666666,2.3484848484848486,0.0,-5.0,1.5,0.0,0.0,0,0,0,0,50,0,0,0
162,8.116666666666667,2.4242424242424243,0.0,-5.0,1.5,0.0,0.0,0,0,0,0,50,0,0,0
163,8.183333333333334,2.5,0.0,-5.0,0,0,0,0,0,0,0,60,0,0,0
164,8.233333333333334,2.5,0.0,-5.0,0,0,0,0,0,0,0,60,0,0,0
165,8.283333333333333,2.5,0.0,-5.0,0,0,0,0,0,0,0,60,0,0,0
166,8.333333333333334,2.5,0.0,-5.0,0,0,0,0,0,0,0,60,0,0,0
167,8.383333333333333,2.5,0.0,-5.0,0,0,0,0,0,0,0,60,0,0,0
168,8.433333333333334,2.5,0.0,-5.0,0,0,0,0,0,0,0,60,0,0,0
169,8.483333333333334,2.5,0.0,-5.0,0,0,0,0,0,0,0,60,0,0,0
170,8.533333333333333,2.5,0.0,-5.0,0,0,0,0,0,0,0,60,0,0,0
171,8.583333333333334,2.5,0.0,-5.0,0,0,0,0,0,0,0,60,0,0,0
172,8.633333333333333,2.5,0.0,-5.0,0,0,0,0,0,0,0,60,0,0,0
173,8.683333333333334,2.5,0.0,-5.0,0,0,0,0,0,0,0,60,0,0,0
174,8.733333333333334,2.5,0.0,-5.0,0,0,0,0,0,0,0,60,0,0,0
175,8.783333333333333,2.5,0.0,-5.0,0,0,0,0,0,0,0,60,0,0,0
176,8.833333333333334,2.5,0.0,-5.0,0,0,0,0,0,0,0,60,0,0,0
177,8.883333333333333,2.5,0.0,-5.0,0,0,0,0,0,0,0,60,0,0,0
178,8.933333333333334,2.5,0.0,-5.0,0,0,0,0,0,0,0,60,0,0,0
179,8.983333333333334,2.5,0.0,-5.0,0,0,0,0,0,0,0,60,0,0,0
180,9.033333333333333,2.5,0.0,-5.0,0,0,0,0,0,0,0,60,0,0,0
181,9.083333333333334,2.5,0.0,-5.0,0,0,0,0,0,0,0,60,0,0,0
182,9.133333333333333,2.5,0.0,-5.0,0,0,0,0,0,0,0,60,0,0,0
183,9.183333333333334,2.5,0.0,-5.0,0,0,0,0,0,0,0,60,0,0,0
184,9.233333333333334,2.5,0.0,-5.0,0,0,0,0,0,0,0,60,0,0,0
185,9.283333333333333,2.5,0.0,-5.0,0,0,0,0,0,0,0,60,0,0,0
186,9.333333333333334,2.5,0.0,-5.0,0,0,0,0,0,0,0,60,0,0,0
187,9.383333333333333,2.5,0.0,-5.0,0,0,0,0,0,0,0,60,0,0,0
188,9.433333333333334,2.5,0.0,-5.0,0,0,0,0,0,0,0,60,0,0,0
189,9.483333333333334,2.5,0.0,-5.0,0,0,0,0,0,0,0,60,0,0,0
190,9.533333333333333,2.5,0.0,-5.0,0,0,0,0,0,0,0,60,0,0,0
191,9.583333333333334,2.5,0.0,-5.0,0,0,0,0,0,0,0,60,0,0,0
192,9.633333333333333,2.5,0.0,-5.0,0,0,0,0,0,0,0,60,0,0,0
193,9.683333333333334,2.5,0.0,-5.0,0,0,0,0,0,0,0,60,0,0,0
194,9.733333333333334,2.5,0.0,-5.0,0,0,0,0,0,0,0,60,0,0,0
195,9.783333333333333,2.5,0.0,-5.0,0,0,0,0,0,0,0,60,0,0,0
196,9.833333333333334,2.5,0.0,-5.0,0,0,0,0,0,0,0,60,0,0,0
197,9.883333333333333,2.5,0.0,-5.0,0,0,0,0,0,0,0,60,0,0,0
198,9.933333333333334,2.5,0.0,-5.0,0,0,0,0,0,0,0,60,0,0,0
199,9.983333333333334,2.5,0.0,-5.0,0,0,0,0,0,0,0,60,0,0,0
200,10.033333333333333,2.5,0.0,-5.0,0,0,0,0,0,0,0,60,0,0,0
201,10.083333333333334,2.5,0.0,-5.0,0,0,0,0,0,0,0,60,0,0,0
202,10.133333333333333,2.5,0.0,-5.0,0,0,0,0,0,0,0,60,0,0,0
203,10.183333333333334,2.5,0.0,-5.0,-0.0,0.7853981633974483,0,-0.24674011002723398,-0.0,0,0,70,0,0,0
204,10.233333333333334,2.499691581204152,0.03926829327955169,-5.0,-0.012336498168604904,0.7853012707751216,0,-0.2467096703121851,-0.0038756252017513103,0,0,70,0,0,0
205,10.283333333333333,2.498766400914329,0.07852689769532073,-5.0,-0.024669952490881684,0.7850106168149464,0,-0.24661835867758278,-0.007750294150976313,0,0,70,0,0,0
206,10.333333333333334,2.497224687404925,0.11776612677410667,-5.0,-0.036997319871525776,0.7845262732314381,0,-0.24646619765320643,-0.011623050831089705,0,0,70,0,0,0
207,10.383333333333333,2.4950668210706795,0.15697629882328343,-5.0,-0.04931555871709433,0.7838483595291283,0,-0.24625322478251208,-0.015492939697329964,0,0,70,0,0,0
208,10.433333333333334,2.4922933343328193,0.19614773931961235,-5.0,-0.061621629686474,0.7829770429730797,0,-0.24597949261336868,-0.01935900591252574,0,0,70,0,0,0
209,10.483333333333334,2.4889049115077,0.2352707832962858,-5.0,-0.07391249644079277,0.7819125385476144,0,-0.24564506868509317,-0.02322029558268763,0,0,70,0,0,0
210,10.533333333333333,2.4849023886379493,0.2743357777276132,-5.0,-0.08618512639259121,0.7806551089032711,0,-0.24525003551178565,-0.027075855992367233,0,0,70,0,0,0
211,10.583333333333334,2.4802867532861947,0.31333308391076065,-5.0,-0.09843649145406799,0.7792050642919989,0,-0.2447944905619706,-0.030924735839725447,0,0,70,0,0,0
212,10.633333333333333,2.475059144291394,0.35225307984395665,-5.0,-0.11066356878421531,0.7775627624906083,0,-0.24427854623454803,-0.03476598547125195,0,0,70,0,0,0
213,10.683333333333334,2.4692208514878446,0.39108616260057716,-5.0,-0.12286334153465965,0.7757286087124946,0,-0.24370232983106044,-0.038598657116078045,0,0,70,0,0,0
214,10.733333333333334,2.4627733153869347,0.4298227506985239,-5.0,-0.13503279959402398,0.7737030555076572,0,-0.2430659835242832,-0.04242180511982485,0,0,70,0,0,0
215,10.783333333333333,2.455718126821722,0.46845328646431156,-5.0,-0.1471689403306276,0.7714866026510409,0,-0.24236966432314577,-0.046234486177929426,0,0,70,0,0,0
216,10.833333333333334,2.448057026554414,0.5069682383912812,-5.0,-0.1592687693333408,0.769079797019222,0,-0.24161354403399174,-0.05003575956839108,0,0,70,0,0,0
217,10.883333333333333,2.439791904846869,0.5453581034913564,-5.0,-0.17132930115041073,0.766483232455477,0,-0.2407978092181884,-0.05382468738388036,0,0,70,0,0,0
218,10.933333333333334,2.430924800994191,0.5836134096397635,-5.0,-0.18334756002607716,0.7636975496232582,0,-0.23992266114609545,-0.057600334763153765,0,0,70,0,0,0
219,10.983333333333334,2.4214579028215777,0.621724717912137,-5.0,-0.1953205806347956,0.7607234358481215,0,-0.23898831574740448,-0.061361770121716674,0,0,70,0,0,0
220,11.033333333333333,2.4113935461444953,0.6596826249134323,-5.0,-0.207245408812887,0.7575616249481386,0,-0.23799500355786185,-0.06510806538167792,0,0,70,0,0,0
221,11.083333333333334,2.400734214192358,0.6974777650980732,-5.0,-0.21911910228743342,0.7542128970528374,0,-0.23694296966238693,-0.06883829620073914,0,0,70,0,0,0
222,11.133333333333333,2.389482536995825,0.7351008130807599,-5.0,-0.23093873140223992,0.7506780784107185,0,-0.2358324736346016,-0.07255154220026233,0,0,70,0,0,0
223,11.183333333333334,2.377641290737884,0.7725424859373685,-5.0,-0.24270137984068332,0.7469580411853889,0,-0.23466378947278396,-0.07624688719235966,0,0,70,0,0,0
224,11.233333333333334,2.365213397068864,0.8097935454953735,-5.0,-0.2544041453452697,0.7430537032403699,0,-0.23343720553226366,-0.07992341940594894,0,0,70,0,0,0
225,11.283333333333333,2.3522019223855635,0.8468448006132285,-5.0,-0.26604414043372315,0.7389660279126276,0,-0.23215302445427405,-0.08358023171171959,0,0,70,0,0,0
226,11.333333333333334,2.3386100770746676,0.883687109448143,-5.0,-0.27761849311142855,0.7346960237748836,0,-0.23081156309128065,-0.08721642184595325,0,0,70,0,0,0
227,11.383333333333333,2.324441214720628,0.9203113817116949,-5.0,-0.28912434758005323,0.730244744386766,0,-0.22941315242880203,-0.09083109263314372,0,0,70,0,0,0
228,11.433333333333334,2.309698831278217,0.9567085809127245,-5.0,-0.30055886494217315,0.7256132880348577,0,-0.22795813750374436,-0.0944233522073618,0,0,70,0,0,0
229,11.483333333333334,2.294386564209953,0.9928697265869515,-5.0,-0.3119192239017273,0.7208027974617114,0,-0.2264468773192684,-0.09799231423230964,0,0,70,0,0,0
230,11.533333333333333,2.278508191588614,1.0287858965127719,-5.0,-0.3232026214601313,0.7158144595838952,0,-0.22487974475621134,-0.10153709812001115,0,0,70,0,0,0
231,11.583333333333334,2.262067631165049,1.0644482289126818,-5.0,-0.3344062736078747,0.7106495051991384,0,-0.22325712648108348,-0.10505682924808375,0,0,70,0,0,0
232,11.633333333333333,2.2450689394015395,1.0998479246397879,-5.0,-0.3455274160114338,0.7053092086826503,0,-0.22157942285066448,-0.10855063917553848,0,0,70,0,0,0
233,11.683333333333334,2.2275163104709197,1.1349762493488669,-5.0,-0.3565633046953297,0.6997948876726883,0,-0.21984704781322117,-0.1120176658570547,0,0,70,0,0,0
234,11.733333333333334,2.2094140752217335,1.1698245356514334,-5.0,-0.3675112167191634,0.6941079027454484,0,-0.21806042880637194,-0.11545705385567702,0,0,70,0,0,0
235,11.783333333333333,2.190766700109659,1.2043841852542883,-5.0,-0.37836845084946,0.6882496570793658,0,-0.216220006651623,-0.11886795455388144,0,0,70,0,0,0
236,11.833333333333334,2.1715787860954787,1.2386466710810187,-5.0,-0.3891323282261581,0.6822215961088995,0,-0.2143262354456022,-0.12224952636295905,0,0,70,0,0,0
237,11.883333333333333,2.1518550675098593,1.2726035393759283,-5.0,-0.3998001930235785,0.6760252071678943,0,-0.21237958244801747,-0.12560093493066557,0,0,70,0,0,0
238,11.933333333333334,2.1316004108852304,1.306246411789872,-5.0,-0.41036941310570896,0.6696620191226025,0,-0.21038052796636755,-0.12892135334708502,0,0,70,0,0,0
239,11.983333333333334,2.110819813755038,1.3395669874474916,-5.0,-0.420837380675645,0.6631336019944601,0,-0.2083295652374334,-0.13220996234865776,0,0,70,0,0,0
240,12.033333333333333,2.0895184034206755,1.3725570449953295,-5.0,-0.4312015129190242,0.6564415665727068,0,-0.20622720030557906,-0.1354659505203211,0,0,70,0,0,0
241,12.083333333333334,2.0677014356864047,1.4052084446303263,-5.0,-0.44145925264129726,0.6495875640169477,0,-0.20407395189789324,-0.138688514495714,0,0,70,0,0,0
242,12.133333333333333,2.045374293562558,1.4375131301081965,-5.0,-0.45160806889867783,0.6425732854497547,0,-0.20187035129620065,-0.14187685915539594,0,0,70,0,0,0
243,12.183333333333334,2.022542485937368,1.469463130731183,-5.0,-0.4616454576226142,0.6354004615394075,0,-0.19961694220597664,-0.14503019782303028,0,0,70,0,0,0
244,12.233333333333334,1.9992116462177263,1.5010505633147102,-5.0,-0.47156894223763146,0.6280708620728765,0,-0.19731428062219572,-0.14814775245948525,0,0,70,0,0,0
245,12.283333333333333,1.9753875309392255,1.5322676341324413,-5.0,-0.48137607427238904,0.6205862955191551,0,-0.19496293469214823,-0.1512287538548032,0,0,70,0,0,0
246,12.333333333333334,1.951076018345825,1.5631066408392627,-5.0,-0.4910644339638047,0.6129486085830467,0,-0.1925634845752585,-0.15427244181799188,0,0,70,0,0,0
247,12.383333333333333,1.926283106939473,1.5935599743717244,-5.0,-0.5006316308540948,0.605159685749517,0,-0.19011652229993903,-0.15727806536459016,0,0,70,0,0,0
248,12.433333333333334,1.9010149140000774,1.6236201208254593,-5.0,-0.5100753043805836,0.5972214488187275,0,-0.1876226516175167,-0.1602448829019619,0,0,70,0,0,0
249,12.483333333333334,1.8752776740761483,1.6532796633091298,-5.0,-0.5193931244581369,0.5891358564318583,0,-0.18508248785326573,-0.1631721624122732,0,0,70,0,0,0
250,12.533333333333333,1.8490777374465246,1.6825312837744333,-5.0,-0.5285827920540763,0.5809049035878436,0,-0.18249665775458568,-0.16605918163310673,0,0,70,0,0,0
251,12.583333333333334,1.822421568553529,1.7113677648217218,-5.0,-0.5376420397554307,0.5725306211511354,0,-0.1798657993363608,-0.16890522823566922,0,0,70,0,0,0
252,12.633333333333333,1.7953157444079721,1.7397819914807862,-5.0,-0.5465686323283858,0.5640150753506176,0,-0.17719056172353936,-0.17170960000054777,0,0,70,0,0,0
253,12.683333333333334,1.7677669529663689,1.7677669529663687,-5.0,-0.5553603672697957,0.5553603672697958,0,-0.17447160499097197,-0.17447160499097197,0,0,70,0,0,0
254,12.733333333333334,1.7397819914807853,1.7953157444079724,-5.0,-0.5640150753506177,0.5465686323283856,0,-0.1717096000005477,-0.17719056172353942,0,0,70,0,0,0
255,12.783333333333333,1.7113677648217216,1.822421568553529,-5.0,-0.5725306211511354,0.5376420397554306,0,-0.16890522823566922,-0.1798657993363608,0,0,70,0,0,0
256,12.833333333333334,1.6825312837744333,1.8490777374465242,-5.0,-0.5809049035878436,0.5285827920540763,0,-0.16605918163310673,-0.18249665775458568,0,0,70,0,0,0
257,12.883333333333333,1.6532796633091298,1.8752776740761488,-5.0,-0.5891358564318583,0.5193931244581369,0,-0.1631721624122732,-0.18508248785326573,0,0,70,0,0,0
258,12.933333333333334,1.6236201208254597,1.901014914000077,-5.0,-0.5972214488187274,0.5100753043805836,0,-0.1602448829019619,-0.18762265161751668,0,0,70,0,0,0
259,12.983333333333334,1.5935599743717246,1.926283106939473,-5.0,-0.605159685749517,0.5006316308540948,0,-0.15727806536459016,-0.19011652229993906,0,0,70,0,0,0
260,13.033333333333333,1.5631066408392629,1.9510760183458242,-5.0,-0.6129486085830466,0.4910644339638048,0,-0.1542724418179919,-0.1925634845752585,0,0,70,0,0,0
261,13.083333333333334,1.5322676341324408,1.975387530939226,-5.0,-0.6205862955191552,0.4813760742723889,0,-0.15122875385480317,-0.19496293469214823,0,0,70,0,0,0
262,13.133333333333333,1.5010505633147098,1.9992116462177265,-5.0,-0.6280708620728765,0.47156894223763135,0,-0.14814775245948522,-0.19731428062219575,0,0,70,0,0,0
263,13.183333333333334,1.469463130731183,2.0225424859373686,-5.0,-0.6354004615394075,0.4616454576226142,0,-0.14503019782303028,-0.19961694220597664,0,0,70,0,0,0
264,13.233333333333334,1.4375131301081963,2.045374293562559,-5.0,-0.6425732854497548,0.4516080688986778,0,-0.14187685915539594,-0.20187035129620068,0,0,70,0,0,0
265,13.283333333333333,1.4052084446303263,2.0677014356864047,-5.0,-0.6495875640169477,0.44145925264129726,0,-0.138688514495714,-0.20407395189789324,0,0,70,0,0,0
266,13.333333333333334,1.3725570449953293,2.0895184034206755,-5.0,-0.6564415665727068,0.43120151291902414,0,-0.13546595052032107,-0.20622720030557906,0,0,70,0,0,0
267,13.383333333333333,1.3395669874474914,2.110819813755038,-5.0,-0.6631336019944601,0.4208373806756449,0,-0.13220996234865776,-0.2083295652374334,0,0,70,0,0,0
268,13.433333333333334,1.3062464117898722,2.1316004108852304,-5.0,-0.6696620191226025,0.41036941310570907,0,-0.12892135334708504,-0.21038052796636755,0,0,70,0,0,0
269,13.483333333333334,1.2726035393759285,2.151855067509859,-5.0,-0.6760252071678942,0.3998001930235786,0,-0.1256009349306656,-0.2123795824480174,0,0,70,0,0,0
270,13.533333333333333,1.238646671081019,2.171578786095478,-5.0,-0.6822215961088994,0.3891323282261582,0,-0.12224952636295906,-0.21432623544560214,0,0,70,0,0,0
271,13.583333333333334,1.2043841852542876,2.190766700109659,-5.0,-0.6882496570793658,0.3783684508494599,0,-0.11886795455388138,-0.216220006651623,0,0,70,0,0,0
272,13.633333333333333,1.1698245356514336,2.2094140752217335,-5.0,-0.6941079027454484,0.3675112167191634,0,-0.11545705385567702,-0.21806042880637194,0,0,70,0,0,0
273,13.683333333333334,1.1349762493488669,2.2275163104709197,-5.0,-0.6997948876726883,0.3565633046953298,0,-0.11201766585705471,-0.21984704781322117,0,0,70,0,0,0
274,13.733333333333334,1.0998479246397874,2.245068939401539,-5.0,-0.7053092086826503,0.3455274160114337,0,-0.10855063917553844,-0.22157942285066448,0,0,70,0,0,0
275,13.783333333333333,1.0644482289126818,2.262067631165049,-5.0,-0.7106495051991384,0.3344062736078747,0,-0.10505682924808375,-0.22325712648108348,0,0,70,0,0,0
276,13.833333333333334,1.0287858965127716,2.2785081915886134,-5.0,-0.7158144595838952,0.32320262146013123,0,-0.1015370981200111,-0.22487974475621134,0,0,70,0,0,0
277,13.883333333333333,0.9928697265869513,2.294386564209953,-5.0,-0.7208027974617114,0.3119192239017273,0,-0.09799231423230963,-0.2264468773192684,0,0,70,0,0,0
278,13.933333333333334,0.9567085809127245,2.309698831278217,-5.0,-0.7256132880348577,0.3005588649421732,0,-0.09442335220736181,-0.22795813750374436,0,0,70,0,0,0
279,13.983333333333334,0.920311381711695,2.324441214720628,-5.0,-0.730244744386766,0.2891243475800534,0,-0.09083109263314375,-0.22941315242880203,0,0,70,0,0,0
280,14.033333333333333,0.8836871094481431,2.3386100770746685,-5.0,-0.7346960237748839,0.2776184931114285,0,-0.08721642184595325,-0.23081156309128073,0,0,70,0,0,0
281,14.083333333333334,0.8468448006132281,2.352201922385564,-5.0,-0.7389660279126276,0.26604414043372304,0,-0.08358023171171956,-0.2321530244542741,0,0,70,0,0,0
282,14.133333333333333,0.8097935454953733,2.3652133970688634,-5.0,-0.7430537032403699,0.2544041453452697,0,-0.07992341940594894,-0.23343720553226366,0,0,70,0,0,0
283,14.183333333333334,0.7725424859373686,2.3776412907378837,-5.0,-0.7469580411853889,0.24270137984068332,0,-0.07624688719235967,-0.23466378947278396,0,0,70,0,0,0
284,14.233333333333334,0.7351008130807601,2.3894825369958252,-5.0,-0.7506780784107185,0.23093873140224003,0,-0.07255154220026236,-0.2358324736346016,0,0,70,0,0,0
285,14.283333333333335,0.6974777650980726,2.400734214192358,-5.0,-0.7542128970528377,0.2191191022874332,0,-0.06883829620073906,-0.23694296966238698,0,0,70,0,0,0
286,14.333333333333334,0.6596826249134318,2.4113935461444953,-5.0,-0.7575616249481386,0.20724540881288686,0,-0.06510806538167788,-0.23799500355786185,0,0,70,0,0,0
287,14.383333333333333,0.6217247179121368,2.4214579028215777,-5.0,-0.7607234358481215,0.19532058063479554,0,-0.06136177012171665,-0.23898831574740448,0,0,70,0,0,0
288,14.433333333333334,0.5836134096397636,2.4309248009941915,-5.0,-0.7636975496232582,0.18334756002607722,0,-0.05760033476315378,-0.23992266114609545,0,0,70,0,0,0
289,14.483333333333334,0.5453581034913566,2.439791904846868,-5.0,-0.7664832324554769,0.17132930115041084,0,-0.053824687383880396,-0.24079780921818839,0,0,70,0,0,0
290,14.533333333333335,0.5069682383912815,2.448057026554414,-5.0,-0.769079797019222,0.1592687693333408,0,-0.05003575956839108,-0.24161354403399174,0,0,70,0,0,0
291,14.583333333333334,0.46845328646431117,2.4557181268217216,-5.0,-0.7714866026510409,0.14716894033062752,0,-0.0462344861779294,-0.24236966432314577,0,0,70,0,0,0
292,14.633333333333333,0.42982275069852394,2.462773315386935,-5.0,-0.7737030555076574,0.13503279959402398,0,-0.042421805119824844,-0.24306598352428324,0,0,70,0,0,0
293,14.683333333333334,0.3910861626005775,2.4692208514878446,-5.0,-0.7757286087124946,0.12286334153465969,0,-0.03859865711607806,-0.24370232983106044,0,0,70,0,0,0
294,14.733333333333334,0.35225307984395693,2.475059144291394,-5.0,-0.7775627624906083,0.11066356878421542,0,-0.034765985471251995,-0.24427854623454803,0,0,70,0,0,0
295,14.783333333333335,0.3133330839107602,2.4802867532861947,-5.0,-0.7792050642919989,0.09843649145406781,0,-0.030924735839725388,-0.2447944905619706,0,0,70,0,0,0
296,14.833333333333334,0.27433577772761275,2.4849023886379493,-5.0,-0.7806551089032711,0.0861851263925911,0,-0.027075855992367198,-0.24525003551178565,0,0,70,0,0,0
297,14.883333333333333,0.23527078329628548,2.4889049115077,-5.0,-0.7819125385476144,0.07391249644079274,0,-0.02322029558268762,-0.24564506868509317,0,0,70,0,0,0
298,14.933333333333334,0.1961477393196125,2.4922933343328197,-5.0,-0.7829770429730797,0.06162162968647404,0,-0.019359005912525755,-0.24597949261336868,0,0,70,0,0,0
299,14.983333333333334,0.15697629882328323,2.495066821070679,-5.0,-0.7838483595291283,0.049315558717094275,0,-0.015492939697329946,-0.24625322478251208,0,0,70,0,0,0
300,15.033333333333335,0.1177661267741068,2.497224687404925,-5.0,-0.7845262732314381,0.03699731987152578,0,-0.011623050831089707,-0.24646619765320643,0,0,70,0,0,0
301,15.083333333333334,0.0785268976953204,2.498766400914329,-5.0,-0.7850106168149464,0.024669952490881594,0,-0.007750294150976283,-0.24661835867758278,0,0,70,0,0,0
302,15.133333333333333,0.039268293279551614,2.4996915812041514,-5.0,-0.7853012707751216,0.012336498168604881,0,-0.0038756252017513033,-0.2467096703121851,0,0,70,0,0,0
303,15.183333333333334,0.0,2.5,-5.0,-0.7853981633974483,4.809176734304475e-17,0,-1.510847429830589e-17,-0.24674011002723398,0,0,70,0,0,0
304,15.233333333333334,-0.0392682932795525,2.4996915812041514,-5.0,-0.7853012707751216,-0.012336498168605135,0,0.0038756252017513827,-0.2467096703121851,0,0,70,0,0,0
305,15.283333333333335,-0.07852689769532128,2.498766400914329,-5.0,-0.7850106168149464,-0.02466995249088185,0,0.007750294150976365,-0.24661835867758278,0,0,70,0,0,0
306,15.333333333333334,-0.1177661267741068,2.497224687404925,-5.0,-0.7845262732314381,-0.036997319871525866,0,0.011623050831089731,-0.24646619765320643,0,0,70,0,0,0
307,15.383333333333333,-0.15697629882328368,2.495066821070679,-5.0,-0.7838483595291283,-0.04931555871709435,0,0.01549293969732997,-0.24625322478251208,0,0,70,0,0,0
308,15.433333333333334,-0.19614773931961205,2.4922933343328197,-5.0,-0.7829770429730797,-0.061621629686473944,0,0.019359005912525727,-0.24597949261336868,0,0,70,0,0,0
309,15.483333333333334,-0.23527078329628592,2.4889049115077,-5.0,-0.7819125385476144,-0.07391249644079281,0,0.023220295582687643,-0.24564506868509317,0,0,70,0,0,0
310,15.533333333333335,-0.27433577772761364,2.4849023886379493,-5.0,-0.7806551089032711,-0.08618512639259134,0,0.02707585599236727,-0.24525003551178565,0,0,70,0,0,0
311,15.583333333333334,-0.3133330839107602,2.4802867532861947,-5.0,-0.7792050642919989,-0.0984364914540679,0,0.030924735839725416,-0.2447944905619706,0,0,70,0,0,0
312,15.633333333333333,-0.3522530798439565,2.475059144291394,-5.0,-0.7775627624906083,-0.11066356878421532,0,0.03476598547125196,-0.24427854623454803,0,0,70,0,0,0
313,15.683333333333334,-0.3910861626005766,2.4692208514878446,-5.0,-0.7757286087124946,-0.12286334153465943,0,0.03859865711607798,-0.24370232983106044,0,0,70,0,0,0
314,15.733333333333334,-0.4298227506985244,2.4627733153869347,-5.0,-0.7737030555076572,-0.1350327995940242,0,0.04242180511982492,-0.2430659835242832,0,0,70,0,0,0
315,15.783333333333335,-0.4684532864643116,2.4557181268217216,-5.0,-0.7714866026510409,-0.1471689403306276,0,0.046234486177929426,-0.24236966432314577,0,0,70,0,0,0
316,15.833333333333334,-0.5069682383912815,2.448057026554414,-5.0,-0.769079797019222,-0.1592687693333409,0,0.050035759568391104,-0.24161354403399174,0,0,70,0,0,0
317,15.883333333333333,-0.5453581034913564,2.4397919048468686,-5.0,-0.766483232455477,-0.17132930115041073,0,0.05382468738388036,-0.2407978092181884,0,0,70,0,0,0
318,15.933333333333334,-0.5836134096397634,2.4309248009941915,-5.0,-0.7636975496232582,-0.18334756002607713,0,0.057600334763153745,-0.23992266114609545,0,0,70,0,0,0
319,15.983333333333334,-0.6217247179121377,2.4214579028215777,-5.0,-0.7607234358481215,-0.19532058063479582,0,0.06136177012171674,-0.23898831574740448,0,0,70,0,0,0
320,16.033333333333335,-0.6596826249134322,2.4113935461444953,-5.0,-0.7575616249481386,-0.20724540881288694,0,0.0651080653816779,-0.23799500355786185,0,0,70,0,0,0
321,16.083333333333336,-0.6974777650980735,2.4007342141923576,-5.0,-0.7542128970528374,-0.21911910228743348,0,0.06883829620073914,-0.23694296966238693,0,0,70,0,0,0
322,16.133333333333333,-0.7351008130807595,2.3894825369958257,-5.0,-0.7506780784107188,-0.23093873140223975,0,0.07255154220026229,-0.23583247363460166,0,0,70,0,0,0
323,16.183333333333334,-0.7725424859373684,2.377641290737884,-5.0,-0.746958041185389,-0.24270137984068327,0,0.07624688719235966,-0.23466378947278405,0,0,70,0,0,0
324,16.233333333333334,-0.8097935454953737,2.3652133970688634,-5.0,-0.7430537032403699,-0.2544041453452698,0,0.07992341940594895,-0.23343720553226366,0,0,70,0,0,0
325,16.283333333333335,-0.846844800613229,2.3522019223855635,-5.0,-0.7389660279126276,-0.2660441404337233,0,0.08358023171171963,-0.23215302445427405,0,0,70,0,0,0
326,16.333333333333336,-0.8836871094481431,2.338610077074668,-5.0,-0.7346960237748836,-0.27761849311142855,0,0.08721642184595325,-0.23081156309128065,0,0,70,0,0,0
327,16.383333333333333,-0.920311381711695,2.324441214720628,-5.0,-0.730244744386766,-0.28912434758005323,0,0.09083109263314372,-0.22941315242880203,0,0,70,0,0,0
328,16.433333333333334,-0.9567085809127243,2.309698831278217,-5.0,-0.7256132880348577,-0.30055886494217304,0,0.09442335220736178,-0.22795813750374436,0,0,70,0,0,0
329,16.483333333333334,-0.9928697265869517,2.294386564209953,-5.0,-0.7208027974617114,-0.3119192239017274,0,0.09799231423230965,-0.2264468773192684,0,0,70,0,0,0
330,16.533333333333335,-1.0287858965127723,2.278508191588613,-5.0,-0.7158144595838951,-0.32320262146013146,0,0.10153709812001117,-0.2248797447562113,0,0,70,0,0,0
331,16.583333333333336,-1.0644482289126818,2.2620676311650487,-5.0,-0.7106495051991383,-0.3344062736078747,0,0.10505682924808375,-0.22325712648108342,0,0,70,0,0,0
332,16.633333333333333,-1.0998479246397879,2.245068939401539,-5.0,-0.7053092086826503,-0.3455274160114338,0,0.10855063917553848,-0.22157942285066448,0,0,70,0,0,0
333,16.683333333333334,-1.1349762493488667,2.2275163104709197,-5.0,-0.6997948876726883,-0.3565633046953297,0,0.11201766585705468,-0.21984704781322117,0,0,70,0,0,0
334,16.733333333333334,-1.169824535651434,2.209414075221733,-5.0,-0.6941079027454483,-0.36751121671916365,0,0.11545705385567707,-0.2180604288063719,0,0,70,0,0,0
335,16.783333333333335,-1.2043841852542876,2.190766700109659,-5.0,-0.6882496570793658,-0.37836845084945986,0,0.11886795455388137,-0.216220006651623,0,0,70,0,0,0
336,16.833333333333336,-1.238646671081019,2.171578786095478,-5.0,-0.6822215961088994,-0.3891323282261582,0,0.12224952636295906,-0.21432623544560214,0,0,70,0,0,0
337,16.883333333333333,-1.2726035393759283,2.1518550675098593,-5.0,-0.6760252071678943,-0.3998001930235785,0,0.12560093493066557,-0.21237958244801747,0,0,70,0,0,0
338,16.933333333333334,-1.306246411789872,2.131600410885231,-5.0,-0.6696620191226026,-0.41036941310570896,0,0.12892135334708502,-0.21038052796636758,0,0,70,0,0,0
339,16.983333333333334,-1.3395669874474923,2.1108198137550374,-5.0,-0.66313360199446,-0.42083738067564525,0,0.1322099623486578,-0.20832956523743335,0,0,70,0,0,0
340,17.033333333333335,-1.3725570449953297,2.0895184034206755,-5.0,-0.6564415665727068,-0.4312015129190243,0,0.1354659505203211,-0.20622720030557906,0,0,70,0,0,0
341,17.083333333333336,-1.4052084446303268,2.0677014356864043,-5.0,-0.6495875640169475,-0.44145925264129743,0,0.13868851449571407,-0.2040739518978932,0,0,70,0,0,0
342,17.133333333333333,-1.4375131301081965,2.0453742935625585,-5.0,-0.6425732854497547,-0.45160806889867783,0,0.14187685915539594,-0.20187035129620065,0,0,70,0,0,0
343,17.183333333333334,-1.4694631307311825,2.0225424859373686,-5.0,-0.6354004615394075,-0.46164545762261405,0,0.14503019782303025,-0.19961694220597664,0,0,70,0,0,0
344,17.233333333333334,-1.5010505633147098,1.9992116462177267,-5.0,-0.6280708620728767,-0.4715689422376313,0,0.1481477524594852,-0.19731428062219575,0,0,70,0,0,0
345,17.283333333333335,-1.5322676341324415,1.9753875309392257,-5.0,-0.6205862955191551,-0.48137607427238915,0,0.15122875385480322,-0.19496293469214823,0,0,70,0,0,0
346,17.333333333333336,-1.5631066408392629,1.9510760183458242,-5.0,-0.6129486085830466,-0.4910644339638048,0,0.1542724418179919,-0.1925634845752585,0,0,70,0,0,0
347,17.383333333333333,-1.5935599743717244,1.926283106939473,-5.0,-0.605159685749517,-0.5006316308540948,0,0.15727806536459016,-0.19011652229993906,0,0,70,0,0,0
348,17.433333333333334,-1.6236201208254588,1.9010149140000776,-5.0,-0.5972214488187276,-0.5100753043805833,0,0.16024488290196184,-0.18762265161751673,0,0,70,0,0,0
349,17.483333333333334,-1.6532796633091302,1.8752776740761483,-5.0,-0.5891358564318583,-0.519393124458137,0,0.16317216241227325,-0.18508248785326567,0,0,70,0,0,0
350,17.533333333333335,-1.6825312837744335,1.849077737446524,-5.0,-0.5809049035878436,-0.5285827920540764,0,0.16605918163310676,-0.18249665775458562,0,0,70,0,0,0
351,17.583333333333336,-1.7113677648217218,1.8224215685535285,-5.0,-0.5725306211511353,-0.5376420397554307,0,0.16890522823566922,-0.17986579933636077,0,0,70,0,0,0
352,17.633333333333333,-1.7397819914807857,1.7953157444079721,-5.0,-0.5640150753506176,-0.5465686323283856,0,0.1717096000005477,-0.17719056172353936,0,0,70,0,0,0
353,17.683333333333334,-1.7677669529663687,1.7677669529663689,-5.0,-0.5553603672697958,-0.5553603672697957,0,0.17447160499097197,-0.17447160499097197,0,0,70,0,0,0
354,17.733333333333334,-1.7953157444079726,1.7397819914807853,-5.0,-0.5465686323283855,-0.5640150753506178,0,0.17719056172353945,-0.17170960000054766,0,0,70,0,0,0
355,17.783333333333335,-1.8224215685535283,1.711367764821722,-5.0,-0.5376420397554307,-0.5725306211511352,0,0.17986579933636077,-0.16890522823566925,0,0,70,0,0,0
356,17.833333333333336,-1.8490777374465246,1.6825312837744333,-5.0,-0.5285827920540763,-0.5809049035878437,0,0.1824966577545857,-0.16605918163310673,0,0,70,0,0,0
357,17.883333333333333,-1.875277674076149,1.6532796633091296,-5.0,-0.5193931244581368,-0.5891358564318584,0,0.18508248785326575,-0.16317216241227317,0,0,70,0,0,0
358,17.933333333333334,-1.9010149140000774,1.6236201208254595,-5.0,-0.5100753043805836,-0.5972214488187275,0,0.1876226516175167,-0.1602448829019619,0,0,70,0,0,0
359,17.983333333333334,-1.9262831069394735,1.5935599743717237,-5.0,-0.5006316308540947,-0.6051596857495172,0,0.1901165222999391,-0.15727806536459008,0,0,70,0,0,0
360,18.033333333333335,-1.9510760183458244,1.5631066408392627,-5.0,-0.4910644339638047,-0.6129486085830467,0,0.1925634845752585,-0.15427244181799188,0,0,70,0,0,0
361,18.083333333333336,-1.975387530939226,1.5322676341324408,-5.0,-0.4813760742723889,-0.6205862955191552,0,0.19496293469214823,-0.15122875385480317,0,0,70,0,0,0
362,18.133333333333333,-1.9992116462177265,1.50105056331471,-5.0,-0.47156894223763135,-0.6280708620728765,0,0.19731428062219575,-0.14814775245948522,0,0,70,0,0,0
363,18.183333333333334,-2.022542485937368,1.4694631307311832,-5.0,-0.4616454576226142,-0.6354004615394073,0,0.19961694220597662,-0.1450301978230303,0,0,70,0,0,0
364,18.233333333333334,-2.045374293562558,1.4375131301081967,-5.0,-0.45160806889867794,-0.6425732854497546,0,0.2018703512962006,-0.14187685915539597,0,0,70,0,0,0
365,18.28333333333333,-2.0677014356864043,1.405208444630327,-5.0,-0.44145925264129754,-0.6495875640169475,0,0.2040739518978932,-0.13868851449571407,0,0,70,0,0,0
366,18.333333333333336,-2.0895184034206755,1.3725570449953293,-5.0,-0.43120151291902414,-0.6564415665727068,0,0.20622720030557906,-0.13546595052032107,0,0,70,0,0,0
367,18.383333333333333,-2.1108198137550382,1.3395669874474905,-5.0,-0.42083738067564463,-0.6631336019944604,0,0.20832956523743346,-0.13220996234865764,0,0,70,0,0,0
368,18.433333333333334,-2.1316004108852304,1.3062464117898722,-5.0,-0.41036941310570907,-0.6696620191226025,0,0.21038052796636755,-0.12892135334708504,0,0,70,0,0,0
369,18.483333333333334,-2.1518550675098593,1.2726035393759276,-5.0,-0.39980019302357833,-0.6760252071678943,0,0.21237958244801747,-0.1256009349306655,0,0,70,0,0,0
370,18.53333333333333,-2.171578786095478,1.2386466710810193,-5.0,-0.38913232822615834,-0.6822215961088994,0,0.21432623544560214,-0.1222495263629591,0,0,70,0,0,0
371,18.583333333333336,-2.190766700109659,1.204384185254288,-5.0,-0.37836845084945997,-0.6882496570793658,0,0.216220006651623,-0.11886795455388142,0,0,70,0,0,0
372,18.633333333333333,-2.209414075221734,1.1698245356514325,-5.0,-0.36751121671916315,-0.6941079027454486,0,0.218060428806372,-0.11545705385567694,0,0,70,0,0,0
373,18.683333333333334,-2.2275163104709197,1.134976249348867,-5.0,-0.3565633046953298,-0.6997948876726883,0,0.21984704781322117,-0.11201766585705471,0,0,70,0,0,0
374,18.733333333333334,-2.2450689394015395,1.0998479246397872,-5.0,-0.34552741601143355,-0.7053092086826505,0,0.2215794228506645,-0.10855063917553841,0,0,70,0,0,0
375,18.78333333333333,-2.2620676311650483,1.0644482289126822,-5.0,-0.3344062736078749,-0.7106495051991382,0,0.2232571264810834,-0.10505682924808381,0,0,70,0,0,0
376,18.833333333333336,-2.2785081915886134,1.0287858965127719,-5.0,-0.3232026214601313,-0.7158144595838952,0,0.22487974475621134,-0.10153709812001115,0,0,70,0,0,0
377,18.883333333333333,-2.294386564209953,0.9928697265869515,-5.0,-0.3119192239017273,-0.7208027974617114,0,0.2264468773192684,-0.09799231423230964,0,0,70,0,0,0
378,18.933333333333334,-2.309698831278217,0.9567085809127247,-5.0,-0.3005588649421732,-0.7256132880348577,0,0.22795813750374436,-0.09442335220736181,0,0,70,0,0,0
379,18.983333333333334,-2.3244412147206286,0.9203113817116944,-5.0,-0.28912434758005306,-0.7302447443867661,0,0.2294131524288021,-0.09083109263314366,0,0,70,0,0,0
380,19.03333333333333,-2.338610077074668,0.8836871094481435,-5.0,-0.2776184931114287,-0.7346960237748836,0,0.23081156309128065,-0.0872164218459533,0,0,70,0,0,0
381,19.083333333333336,-2.3522019223855635,0.8468448006132283,-5.0,-0.26604414043372315,-0.7389660279126276,0,0.23215302445427405,-0.08358023171171958,0,0,70,0,0,0
382,19.133333333333333,-2.3652133970688634,0.8097935454953736,-5.0,-0.2544041453452698,-0.7430537032403699,0,0.23343720553226366,-0.07992341940594895,0,0,70,0,0,0
383,19.183333333333334,-2.3776412907378837,0.7725424859373687,-5.0,-0.24270137984068335,-0.7469580411853889,0,0.23466378947278396,-0.07624688719235967,0,0,70,0,0,0
384,19.233333333333334,-2.3894825369958252,0.7351008130807604,-5.0,-0.23093873140224006,-0.7506780784107185,0,0.2358324736346016,-0.07255154220026239,0,0,70,0,0,0
385,19.28333333333333,-2.4007342141923576,0.6974777650980739,-5.0,-0.21911910228743364,-0.7542128970528374,0,0.23694296966238693,-0.0688382962007392,0,0,70,0,0,0
386,19.333333333333336,-2.4113935461444953,0.659682624913432,-5.0,-0.20724540881288692,-0.7575616249481386,0,0.23799500355786185,-0.06510806538167788,0,0,70,0,0,0
387,19.383333333333333,-2.421457902821578,0.6217247179121359,-5.0,-0.19532058063479527,-0.7607234358481217,0,0.23898831574740456,-0.06136177012171656,0,0,70,0,0,0
388,19.433333333333334,-2.4309248009941915,0.5836134096397638,-5.0,-0.18334756002607727,-0.7636975496232582,0,0.23992266114609545,-0.05760033476315379,0,0,70,0,0,0
389,19.483333333333334,-2.4397919048468686,0.5453581034913558,-5.0,-0.17132930115041056,-0.766483232455477,0,0.2407978092181884,-0.05382468738388031,0,0,70,0,0,0
390,19.53333333333333,-2.448057026554414,0.5069682383912819,-5.0,-0.15926876933334103,-0.769079797019222,0,0.24161354403399174,-0.05003575956839115,0,0,70,0,0,0
391,19.583333333333336,-2.4557181268217216,0.46845328646431145,-5.0,-0.14716894033062758,-0.7714866026510409,0,0.24236966432314577,-0.04623448617792942,0,0,70,0,0,0
392,19.633333333333333,-2.462773315386935,0.4298227506985228,-5.0,-0.13503279959402364,-0.7737030555076574,0,0.24306598352428324,-0.04242180511982475,0,0,70,0,0,0
393,19.683333333333334,-2.469220851487844,0.39108616260057744,-5.0,-0.12286334153465975,-0.7757286087124945,0,0.24370232983106038,-0.03859865711607807,0,0,70,0,0,0
394,19.733333333333334,-2.4750591442913943,0.35225307984395604,-5.0,-0.1106635687842151,-0.7775627624906084,0,0.24427854623454806,-0.0347659854712519,0,0,70,0,0,0
395,19.783333333333335,-2.4802867532861947,0.3133330839107602,-5.0,-0.09843649145406784,-0.7792050642919989,0,0.2447944905619706,-0.030924735839725402,0,0,70,0,0,0
396,19.833333333333336,-2.4849023886379493,0.27433577772761303,-5.0,-0.08618512639259115,-0.7806551089032711,0,0.24525003551178565,-0.027075855992367216,0,0,70,0,0,0
397,19.883333333333333,-2.4889049115077,0.23527078329628587,-5.0,-0.07391249644079279,-0.7819125385476144,0,0.24564506868509317,-0.023220295582687636,0,0,70,0,0,0
398,19.933333333333334,-2.4922933343328197,0.19614773931961266,-5.0,-0.06162162968647409,-0.7829770429730797,0,0.24597949261336868,-0.019359005912525772,0,0,70,0,0,0
399,19.983333333333334,-2.495066821070679,0.15697629882328284,-5.0,-0.04931555871709415,-0.7838483595291283,0,0.24625322478251208,-0.015492939697329906,0,0,70,0,0,0
400,20.033333333333335,-2.497224687404925,0.11776612677410628,-5.0,-0.03699731987152565,-0.7845262732314381,0,0.24646619765320643,-0.011623050831089665,0,0,70,0,0,0
401,20.083333333333336,-2.498766400914329,0.07852689769532059,-5.0,-0.024669952490881643,-0.7850106168149464,0,0.24661835867758278,-0.007750294150976299,0,0,70,0,0,0
402,20.133333333333333,-2.4996915812041514,0.03926829327955177,-5.0,-0.01233649816860493,-0.7853012707751216,0,0.2467096703121851,-0.003875625201751318,0,0,70,0,0,0
403,20.183333333333334,-2.5,3.061616997868383e-16,-5.0,-9.61835346860895e-17,-0.7853981633974483,0,0.24674011002723398,-3.021694859661178e-17,0,0,70,0,0,0
404,20.233333333333334,-2.4996915812041514,-0.039268293279551156,-5.0,0.012336498168604736,-0.7853012707751216,0,0.2467096703121851,0.003875625201751258,0,0,70,0,0,0
405,20.283333333333335,-2.4987664009143287,-0.0785268976953222,-5.0,0.02466995249088215,-0.7850106168149462,0,0.24661835867758275,0.0077502941509764575,0,0,70,0,0,0
406,20.333333333333336,-2.497224687404925,-0.11776612677410678,-5.0,0.03699731987152581,-0.7845262732314381,0,0.24646619765320643,0.011623050831089715,0,0,70,0,0,0
407,20.383333333333333,-2.495066821070679,-0.15697629882328445,-5.0,0.04931555871709466,-0.7838483595291283,0,0.24625322478251208,0.015492939697330064,0,0,70,0,0,0
408,20.433333333333334,-2.49229333433282,-0.19614773931961094,-5.0,0.061621629686473556,-0.7829770429730798,0,0.2459794926133687,0.019359005912525602,0,0,70,0,0,0
409,20.483333333333334,-2.4889049115077,-0.23527078329628637,-5.0,0.07391249644079294,-0.7819125385476144,0,0.24564506868509317,0.023220295582687688,0,0,70,0,0,0
410,20.533333333333335,-2.484902388637949,-0.27433577772761464,-5.0,0.08618512639259165,-0.780655108903271,0,0.24525003551178556,0.027075855992367375,0,0,70,0,0,0
411,20.583333333333336,-2.4802867532861947,-0.3133330839107607,-5.0,0.09843649145406799,-0.7792050642919989,0,0.2447944905619706,0.03092473583972545,0,0,70,0,0,0
412,20.633333333333333,-2.475059144291394,-0.35225307984395654,-5.0,0.11066356878421527,-0.7775627624906083,0,0.24427854623454803,0.034765985471251946,0,0,70,0,0,0
413,20.683333333333334,-2.4692208514878446,-0.3910861626005768,-5.0,0.12286334153465954,-0.7757286087124946,0,0.24370232983106044,0.03859865711607801,0,0,70,0,0,0
414,20.733333333333334,-2.4627733153869347,-0.42982275069852444,-5.0,0.13503279959402414,-0.7737030555076572,0,0.2430659835242832,0.04242180511982491,0,0,70,0,0,0
415,20.783333333333335,-2.4557181268217216,-0.46845328646431195,-5.0,0.14716894033062772,-0.7714866026510409,0,0.24236966432314577,0.046234486177929475,0,0,70,0,0,0
416,20.833333333333336,-2.448057026554414,-0.5069682383912824,-5.0,0.15926876933334116,-0.769079797019222,0,0.24161354403399174,0.050035759568391194,0,0,70,0,0,0
417,20.883333333333333,-2.439791904846868,-0.5453581034913574,-5.0,0.17132930115041106,-0.7664832324554769,0,0.24079780921818839,0.05382468738388046,0,0,70,0,0,0
418,20.933333333333334,-2.4309248009941915,-0.5836134096397632,-5.0,0.18334756002607705,-0.7636975496232582,0,0.23992266114609545,0.05760033476315373,0,0,70,0,0,0
419,20.983333333333334,-2.421457902821578,-0.6217247179121365,-5.0,0.19532058063479543,-0.7607234358481217,0,0.23898831574740456,0.06136177012171662,0,0,70,0,0,0
420,21.033333333333335,-2.411393546144495,-0.6596826249134337,-5.0,0.2072454088128874,-0.7575616249481385,0,0.2379950035578618,0.06510806538167806,0,0,70,0,0,0
421,21.083333333333336,-2.4007342141923576,-0.6974777650980732,-5.0,0.21911910228743342,-0.7542128970528374,0,0.23694296966238693,0.06883829620073914,0,0,70,0,0,0
422,21.133333333333333,-2.3894825369958252,-0.7351008130807597,-5.0,0.23093873140223983,-0.7506780784107185,0,0.2358324736346016,0.07255154220026232,0,0,70,0,0,0
423,21.183333333333334,-2.3776412907378845,-0.7725424859373673,-5.0,0.2427013798406829,-0.7469580411853891,0,0.23466378947278407,0.07624688719235953,0,0,70,0,0,0
424,21.233333333333334,-2.3652133970688634,-0.8097935454953741,-5.0,0.2544041453452699,-0.7430537032403699,0,0.23343720553226366,0.07992341940594899,0,0,70,0,0,0
425,21.283333333333335,-2.352201922385563,-0.8468448006132299,-5.0,0.2660441404337236,-0.7389660279126273,0,0.23215302445427402,0.08358023171171974,0,0,70,0,0,0
426,21.333333333333336,-2.3386100770746685,-0.8836871094481419,-5.0,0.27761849311142817,-0.7346960237748839,0,0.23081156309128073,0.08721642184595314,0,0,70,0,0,0
427,21.383333333333333,-2.3244412147206286,-0.9203113817116948,-5.0,0.28912434758005323,-0.7302447443867661,0,0.2294131524288021,0.09083109263314372,0,0,70,0,0,0
428,21.433333333333334,-2.309698831278217,-0.9567085809127241,-5.0,0.30055886494217304,-0.7256132880348577,0,0.22795813750374436,0.09442335220736175,0,0,70,0,0,0
429,21.483333333333334,-2.294386564209953,-0.9928697265869519,-5.0,0.3119192239017275,-0.7208027974617114,0,0.2264468773192684,0.0979923142323097,0,0,70,0,0,0
430,21.533333333333335,-2.278508191588613,-1.028785896512772,-5.0,0.3232026214601314,-0.7158144595838951,0,0.2248797447562113,0.10153709812001116,0,0,70,0,0,0
431,21.583333333333336,-2.2620676311650487,-1.0644482289126818,-5.0,0.3344062736078747,-0.7106495051991383,0,0.22325712648108342,0.10505682924808375,0,0,70,0,0,0
432,21.633333333333333,-2.2450689394015386,-1.0998479246397888,-5.0,0.34552741601143405,-0.7053092086826502,0,0.22157942285066443,0.10855063917553856,0,0,70,0,0,0
433,21.683333333333334,-2.2275163104709197,-1.1349762493488667,-5.0,0.3565633046953297,-0.6997948876726883,0,0.21984704781322117,0.11201766585705468,0,0,70,0,0,0
434,21.733333333333334,-2.209414075221734,-1.169824535651433,-5.0,0.3675112167191633,-0.6941079027454486,0,0.218060428806372,0.11545705385567696,0,0,70,0,0,0
435,21.783333333333335,-2.1907667001096582,-1.2043841852542894,-5.0,0.37836845084946036,-0.6882496570793656,0,0.21622000665162294,0.11886795455388155,0,0,70,0,0,0
436,21.833333333333336,-2.171578786095478,-1.238646671081019,-5.0,0.3891323282261582,-0.6822215961088994,0,0.21432623544560214,0.12224952636295906,0,0,70,0,0,0
437,21.883333333333333,-2.1518550675098593,-1.272603539375928,-5.0,0.3998001930235785,-0.6760252071678943,0,0.21237958244801747,0.12560093493066554,0,0,70,0,0,0
438,21.933333333333334,-2.13160041088523,-1.3062464117898729,-5.0,0.41036941310570924,-0.6696620191226023,0,0.21038052796636747,0.1289213533470851,0,0,70,0,0,0
439,21.983333333333334,-2.1108198137550374,-1.3395669874474918,-5.0,0.4208373806756451,-0.66313360199446,0,0.20832956523743335,0.13220996234865778,0,0,70,0,0,0
440,22.033333333333335,-2.0895184034206755,-1.3725570449953295,-5.0,0.4312015129190242,-0.6564415665727068,0,0.20622720030557906,0.1354659505203211,0,0,70,0,0,0
441,22.083333333333336,-2.067701435686405,-1.4052084446303257,-5.0,0.4414592526412971,-0.649587564016948,0,0.2040739518978933,0.13868851449571395,0,0,70,0,0,0
442,22.133333333333333,-2.045374293562558,-1.4375131301081971,-5.0,0.451608068898678,-0.6425732854497546,0,0.2018703512962006,0.14187685915539602,0,0,70,0,0,0
443,22.183333333333334,-2.022542485937369,-1.4694631307311825,-5.0,0.46164545762261405,-0.6354004615394075,0,0.19961694220597667,0.14503019782303025,0,0,70,0,0,0
444,22.233333333333334,-1.9992116462177267,-1.5010505633147098,-5.0,0.4715689422376313,-0.6280708620728767,0,0.19731428062219575,0.1481477524594852,0,0,70,0,0,0
445,22.283333333333335,-1.9753875309392257,-1.5322676341324415,-5.0,0.48137607427238915,-0.6205862955191551,0,0.19496293469214823,0.15122875385480322,0,0,70,0,0,0
446,22.333333333333336,-1.9510760183458242,-1.5631066408392629,-5.0,0.4910644339638048,-0.6129486085830466,0,0.1925634845752585,0.1542724418179919,0,0,70,0,0,0
447,22.383333333333333,-1.9262831069394726,-1.593559974371725,-5.0,0.500631630854095,-0.605159685749517,0,0.190116522299939,0.1572780653645902,0,0,70,0,0,0
448,22.433333333333334,-1.9010149140000785,-1.623620120825458,-5.0,0.5100753043805831,-0.597221448818728,0,0.18762265161751682,0.16024488290196173,0,0,70,0,0,0
449,22.483333333333334,-1.8752776740761483,-1.6532796633091302,-5.0,0.519393124458137,-0.5891358564318583,0,0.18508248785326567,0.16317216241227325,0,0,70,0,0,0
450,22.533333333333335,-1.8490777374465233,-1.6825312837744344,-5.0,0.5285827920540767,-0.5809049035878433,0,0.1824966577545856,0.16605918163310687,0,0,70,0,0,0
451,22.583333333333336,-1.822421568553529,-1.7113677648217218,-5.0,0.5376420397554307,-0.5725306211511354,0,0.1798657993363608,0.16890522823566922,0,0,70,0,0,0
452,22.633333333333333,-1.7953157444079724,-1.7397819914807857,-5.0,0.5465686323283856,-0.5640150753506177,0,0.17719056172353942,0.1717096000005477,0,0,70,0,0,0
453,22.683333333333334,-1.7677669529663693,-1.7677669529663687,-5.0,0.5553603672697957,-0.555360367269796,0,0.174471604990972,0.17447160499097197,0,0,70,0,0,0
454,22.733333333333334,-1.7397819914807855,-1.7953157444079724,-5.0,0.5640150753506177,-0.5465686323283856,0,0.1717096000005477,0.17719056172353942,0,0,70,0,0,0
455,22.783333333333335,-1.7113677648217216,-1.822421568553529,-5.0,0.5725306211511354,-0.5376420397554306,0,0.16890522823566922,0.1798657993363608,0,0,70,0,0,0
456,22.833333333333336,-1.6825312837744324,-1.849077737446525,-5.0,0.580904903587844,-0.528582792054076,0,0.16605918163310665,0.1824966577545858,0,0,70,0,0,0
457,22.883333333333333,-1.653279663309129,-1.8752776740761496,-5.0,0.5891358564318586,-0.5193931244581366,0,0.16317216241227311,0.18508248785326584,0,0,70,0,0,0
458,22.933333333333334,-1.6236201208254601,-1.9010149140000765,-5.0,0.5972214488187273,-0.5100753043805838,0,0.16024488290196195,0.18762265161751665,0,0,70,0,0,0
459,22.983333333333334,-1.5935599743717237,-1.9262831069394735,-5.0,0.6051596857495172,-0.5006316308540947,0,0.15727806536459008,0.1901165222999391,0,0,70,0,0,0
460,23.033333333333335,-1.563106640839261,-1.9510760183458258,-5.0,0.6129486085830471,-0.49106443396380417,0,0.15427244181799174,0.19256348457525863,0,0,70,0,0,0
461,23.083333333333336,-1.5322676341324413,-1.975387530939226,-5.0,0.6205862955191552,-0.48137607427238904,0,0.1512287538548032,0.19496293469214823,0,0,70,0,0,0
462,23.133333333333333,-1.5010505633147102,-1.9992116462177263,-5.0,0.6280708620728765,-0.47156894223763146,0,0.14814775245948525,0.19731428062219572,0,0,70,0,0,0
463,23.183333333333334,-1.4694631307311832,-2.022542485937368,-5.0,0.6354004615394073,-0.4616454576226142,0,0.1450301978230303,0.19961694220597662,0,0,70,0,0,0
464,23.233333333333334,-1.437513130108195,-2.04537429356256,-5.0,0.6425732854497551,-0.4516080688986774,0,0.1418768591553958,0.2018703512962008,0,0,70,0,0,0
465,23.283333333333335,-1.4052084446303255,-2.0677014356864056,-5.0,0.649587564016948,-0.441459252641297,0,0.1386885144957139,0.20407395189789335,0,0,70,0,0,0
466,23.333333333333336,-1.3725570449953304,-2.089518403420675,-5.0,0.6564415665727067,-0.4312015129190245,0,0.13546595052032118,0.20622720030557903,0,0,70,0,0,0
467,23.383333333333333,-1.3395669874474927,-2.110819813755037,-5.0,0.6631336019944599,-0.42083738067564536,0,0.13220996234865787,0.20832956523743332,0,0,70,0,0,0
468,23.433333333333334,-1.3062464117898713,-2.131600410885231,-5.0,0.6696620191226026,-0.4103694131057088,0,0.12892135334708496,0.21038052796636758,0,0,70,0,0,0
469,23.483333333333334,-1.2726035393759276,-2.1518550675098593,-5.0,0.6760252071678943,-0.39980019302357833,0,0.1256009349306655,0.21237958244801747,0,0,70,0,0,0
470,23.533333333333335,-1.2386466710810187,-2.1715787860954783,-5.0,0.6822215961088995,-0.3891323282261581,0,0.12224952636295905,0.2143262354456022,0,0,70,0,0,0
471,23.583333333333336,-1.2043841852542883,-2.190766700109659,-5.0,0.6882496570793658,-0.37836845084946,0,0.11886795455388144,0.216220006651623,0,0,70,0,0,0
472,23.633333333333333,-1.1698245356514336,-2.2094140752217335,-5.0,0.6941079027454484,-0.3675112167191635,0,0.11545705385567703,0.21806042880637194,0,0,70,0,0,0
473,23.683333333333334,-1.1349762493488673,-2.2275163104709197,-5.0,0.6997948876726883,-0.3565633046953299,0,0.11201766585705472,0.21984704781322117,0,0,70,0,0,0
474,23.733333333333334,-1.0998479246397883,-2.2450689394015386,-5.0,0.7053092086826502,-0.34552741601143394,0,0.1085506391755385,0.22157942285066443,0,0,70,0,0,0
475,23.783333333333335,-1.0644482289126804,-2.2620676311650496,-5.0,0.7106495051991385,-0.33440627360787434,0,0.10505682924808363,0.22325712648108353,0,0,70,0,0,0
476,23.833333333333336,-1.028785896512773,-2.2785081915886125,-5.0,0.715814459583895,-0.3232026214601317,0,0.10153709812001126,0.22487974475621123,0,0,70,0,0,0
477,23.883333333333333,-0.9928697265869508,-2.2943865642099532,-5.0,0.7208027974617115,-0.3119192239017271,0,0.09799231423230957,0.22644687731926844,0,0,70,0,0,0
478,23.933333333333334,-0.9567085809127238,-2.309698831278217,-5.0,0.7256132880348577,-0.30055886494217293,0,0.09442335220736173,0.22795813750374436,0,0,70,0,0,0
479,23.983333333333334,-0.9203113817116946,-2.3244412147206286,-5.0,0.7302447443867661,-0.2891243475800532,0,0.09083109263314369,0.2294131524288021,0,0,70,0,0,0
480,24.033333333333335,-0.8836871094481427,-2.3386100770746685,-5.0,0.7346960237748839,-0.2776184931114284,0,0.08721642184595321,0.23081156309128073,0,0,70,0,0,0
481,24.083333333333336,-0.8468448006132285,-2.3522019223855635,-5.0,0.7389660279126276,-0.26604414043372315,0,0.08358023171171959,0.23215302445427405,0,0,70,0,0,0
482,24.133333333333333,-0.8097935454953717,-2.3652133970688642,-5.0,0.7430537032403702,-0.2544041453452692,0,0.07992341940594877,0.23343720553226371,0,0,70,0,0,0
483,24.183333333333334,-0.7725424859373689,-2.3776412907378837,-5.0,0.7469580411853889,-0.2427013798406834,0,0.0762468871923597,0.23466378947278396,0,0,70,0,0,0
484,24.233333333333334,-0.7351008130807606,-2.389482536995825,-5.0,0.7506780784107184,-0.2309387314022401,0,0.0725515422002624,0.23583247363460155,0,0,70,0,0,0
485,24.283333333333335,-0.6974777650980739,-2.4007342141923576,-5.0,0.7542128970528374,-0.21911910228743364,0,0.06883829620073921,0.23694296966238693,0,0,70,0,0,0
486,24.333333333333336,-0.6596826249134313,-2.4113935461444953,-5.0,0.7575616249481386,-0.20724540881288664,0,0.06510806538167781,0.23799500355786185,0,0,70,0,0,0
487,24.383333333333333,-0.6217247179121361,-2.421457902821578,-5.0,0.7607234358481217,-0.19532058063479535,0,0.061361770121716584,0.23898831574740456,0,0,70,0,0,0
488,24.433333333333334,-0.5836134096397649,-2.430924800994191,-5.0,0.7636975496232581,-0.18334756002607763,0,0.05760033476315392,0.2399226611460954,0,0,70,0,0,0
489,24.483333333333334,-0.5453581034913559,-2.4397919048468686,-5.0,0.766483232455477,-0.1713293011504106,0,0.05382468738388032,0.2407978092181884,0,0,70,0,0,0
490,24.533333333333335,-0.506968238391281,-2.448057026554414,-5.0,0.769079797019222,-0.15926876933334072,0,0.05003575956839104,0.24161354403399174,0,0,70,0,0,0
491,24.583333333333336,-0.4684532864643116,-2.4557181268217216,-5.0,0.7714866026510409,-0.1471689403306276,0,0.046234486177929426,0.24236966432314577,0,0,70,0,0,0
492,24.633333333333333,-0.42982275069852394,-2.4627733153869347,-5.0,0.7737030555076572,-0.13503279959402403,0,0.04242180511982488,0.2430659835242832,0,0,70,0,0,0
493,24.683333333333334,-0.3910861626005775,-2.469220851487844,-5.0,0.7757286087124945,-0.12286334153465979,0,0.038598657116078086,0.24370232983106038,0,0,70,0,0,0
494,24.733333333333334,-0.3522530798439574,-2.475059144291394,-5.0,0.7775627624906083,-0.1106635687842155,0,0.034765985471252016,0.24427854623454803,0,0,70,0,0,0
495,24.783333333333335,-0.3133330839107593,-2.4802867532861947,-5.0,0.7792050642919989,-0.09843649145406756,0,0.030924735839725312,0.2447944905619706,0,0,70,0,0,0
496,24.833333333333336,-0.27433577772761186,-2.4849023886379493,-5.0,0.7806551089032711,-0.08618512639259085,0,0.027075855992367122,0.24525003551178565,0,0,70,0,0,0
497,24.883333333333333,-0.23527078329628504,-2.4889049115077,-5.0,0.7819125385476144,-0.0739124964407925,0,0.023220295582687546,0.24564506868509317,0,0,70,0,0,0
498,24.933333333333334,-0.19614773931961382,-2.4922933343328197,-5.0,0.7829770429730797,-0.0616216296864745,0,0.019359005912525897,0.24597949261336868,0,0,70,0,0,0
499,24.983333333333334,-0.1569762988232828,-2.495066821070679,-5.0,0.7838483595291283,-0.0493155587170942,0,0.015492939697329922,0.24625322478251208,0,0,70,0,0,0
500,25.033333333333335,-0.11776612677410414,-2.497224687404925,-5.0,0.7845262732314381,-0.036997319871525006,0,0.011623050831089464,0.24646619765320643,0,0,70,0,0,0
501,25.083333333333336,-0.07852689769532084,-2.498766400914329,-5.0,0.7850106168149464,-0.02466995249088169,0,0.0077502941509763135,0.24661835867758278,0,0,70,0,0,0
502,25.133333333333333,-0.03926829327955206,-2.4996915812041514,-5.0,0.7853012707751216,-0.012336498168604975,0,0.003875625201751333,0.2467096703121851,0,0,70,0,0,0
503,25.183333333333334,-4.440892098500626e-16,-2.5,-5.0,0.7853981633974483,-1.442753020291342e-16,0,4.5325422894917666e-17,0.24674011002723398,0,0,70,0,0,0
504,25.233333333333334,0.03926829327955339,-2.4996915812041514,-5.0,0.7853012707751216,0.012336498168605384,0,-0.0038756252017514616,0.2467096703121851,0,0,70,0,0,0
505,25.283333333333335,0.07852689769532217,-2.4987664009143287,-5.0,0.7850106168149462,0.0246699524908821,0,-0.007750294150976442,0.24661835867758275,0,0,70,0,0,0
506,25.333333333333336,0.11776612677410547,-2.497224687404925,-5.0,0.7845262732314381,0.036997319871525415,0,-0.011623050831089589,0.24646619765320643,0,0,70,0,0,0
507,25.383333333333333,0.1569762988232819,-2.495066821070679,-5.0,0.7838483595291283,0.04931555871709391,0,-0.015492939697329828,0.24625322478251208,0,0,70,0,0,0
508,25.433333333333334,0.19614773931961293,-2.4922933343328197,-5.0,0.7829770429730797,0.06162162968647421,0,-0.019359005912525807,0.24597949261336868,0,0,70,0,0,0
509,25.483333333333334,0.23527078329628637,-2.4889049115077,-5.0,0.7819125385476144,0.07391249644079291,0,-0.023220295582687674,0.24564506868509317,0,0,70,0,0,0
510,25.533333333333335,0.2743357777276132,-2.4849023886379493,-5.0,0.7806551089032711,0.08618512639259125,0,-0.027075855992367247,0.24525003551178565,0,0,70,0,0,0
511,25.583333333333336,0.31333308391076065,-2.4802867532861947,-5.0,0.7792050642919989,0.09843649145406796,0,-0.030924735839725437,0.2447944905619706,0,0,70,0,0,0
512,25.633333333333333,0.3522530798439565,-2.475059144291394,-5.0,0.7775627624906083,0.11066356878421521,0,-0.034765985471251926,0.24427854623454803,0,0,70,0,0,0
513,25.683333333333334,0.3910861626005766,-2.4692208514878446,-5.0,0.7757286087124946,0.12286334153465953,0,-0.038598657116078,0.24370232983106044,0,0,70,0,0,0
514,25.733333333333334,0.42982275069852305,-2.462773315386935,-5.0,0.7737030555076574,0.13503279959402376,0,-0.04242180511982478,0.24306598352428324,0,0,70,0,0,0
515,25.783333333333335,0.46845328646431295,-2.4557181268217216,-5.0,0.7714866026510409,0.14716894033062802,0,-0.04623448617792956,0.24236966432314577,0,0,70,0,0,0
516,25.833333333333336,0.5069682383912801,-2.4480570265544146,-5.0,0.7690797970192221,0.15926876933334047,0,-0.05003575956839097,0.24161354403399177,0,0,70,0,0,0
517,25.883333333333333,0.545358103491357,-2.439791904846868,-5.0,0.7664832324554769,0.171329301150411,0,-0.05382468738388045,0.24079780921818839,0,0,70,0,0,0
518,25.933333333333334,0.583613409639764,-2.4309248009941915,-5.0,0.7636975496232582,0.18334756002607738,0,-0.05760033476315383,0.23992266114609545,0,0,70,0,0,0
519,25.983333333333334,0.6217247179121372,-2.4214579028215777,-5.0,0.7607234358481215,0.1953205806347957,0,-0.06136177012171671,0.23898831574740448,0,0,70,0,0,0
520,26.033333333333335,0.6596826249134322,-2.4113935461444953,-5.0,0.7575616249481386,0.20724540881288706,0,-0.06510806538167793,0.23799500355786185,0,0,70,0,0,0
521,26.083333333333336,0.697477765098073,-2.4007342141923576,-5.0,0.7542128970528374,0.21911910228743334,0,-0.06883829620073911,0.23694296966238693,0,0,70,0,0,0
522,26.133333333333333,0.7351008130807619,-2.389482536995825,-5.0,0.7506780784107184,0.2309387314022405,0,-0.07255154220026253,0.23583247363460155,0,0,70,0,0,0
523,26.183333333333334,0.7725424859373682,-2.377641290737884,-5.0,0.746958041185389,0.24270137984068313,0,-0.07624688719235961,0.23466378947278405,0,0,70,0,0,0
524,26.233333333333334,0.8097935454953729,-2.3652133970688634,-5.0,0.7430537032403699,0.25440414534526956,0,-0.07992341940594887,0.23343720553226366,0,0,70,0,0,0
525,26.283333333333335,0.8468448006132276,-2.352201922385564,-5.0,0.7389660279126276,0.26604414043372293,0,-0.08358023171171951,0.2321530244542741,0,0,70,0,0,0
526,26.333333333333336,0.883687109448144,-2.338610077074668,-5.0,0.7346960237748836,0.27761849311142883,0,-0.08721642184595334,0.23081156309128065,0,0,70,0,0,0
527,26.383333333333333,0.9203113817116937,-2.324441214720629,-5.0,0.7302447443867663,0.28912434758005284,0,-0.0908310926331436,0.22941315242880214,0,0,70,0,0,0
528,26.433333333333334,0.9567085809127231,-2.3096988312782174,-5.0,0.7256132880348579,0.30055886494217265,0,-0.09442335220736163,0.2279581375037444,0,0,70,0,0,0
529,26.483333333333334,0.9928697265869517,-2.294386564209953,-5.0,0.7208027974617114,0.31191922390172744,0,-0.09799231423230967,0.2264468773192684,0,0,70,0,0,0
530,26.533333333333335,1.028785896512772,-2.278508191588613,-5.0,0.7158144595838951,0.3232026214601314,0,-0.10153709812001116,0.2248797447562113,0,0,70,0,0,0
531,26.583333333333336,1.0644482289126835,-2.262067631165048,-5.0,0.7106495051991379,0.33440627360787534,0,-0.10505682924808393,0.22325712648108337,0,0,70,0,0,0
532,26.633333333333333,1.0998479246397874,-2.245068939401539,-5.0,0.7053092086826503,0.3455274160114337,0,-0.10855063917553844,0.22157942285066448,0,0,70,0,0,0
533,26.683333333333334,1.1349762493488669,-2.22751631047092,-5.0,0.6997948876726883,0.3565633046953297,0,-0.11201766585705468,0.21984704781322123,0,0,70,0,0,0
534,26.733333333333334,1.1698245356514327,-2.209414075221734,-5.0,0.6941079027454486,0.3675112167191632,0,-0.11545705385567695,0.218060428806372,0,0,70,0,0,0
535,26.783333333333335,1.2043841852542894,-2.1907667001096582,-5.0,0.6882496570793656,0.37836845084946036,0,-0.11886795455388155,0.21622000665162294,0,0,70,0,0,0
536,26.833333333333336,1.2386466710810198,-2.171578786095478,-5.0,0.6822215961088994,0.38913232822615845,0,-0.12224952636295916,0.21432623544560214,0,0,70,0,0,0
537,26.883333333333333,1.2726035393759272,-2.1518550675098598,-5.0,0.6760252071678944,0.39980019302357817,0,-0.12560093493066543,0.2123795824480175,0,0,70,0,0,0
538,26.933333333333334,1.3062464117898709,-2.1316004108852313,-5.0,0.6696620191226027,0.4103694131057086,0,-0.1289213533470849,0.21038052796636764,0,0,70,0,0,0
539,26.983333333333334,1.3395669874474918,-2.1108198137550374,-5.0,0.66313360199446,0.4208373806756451,0,-0.13220996234865778,0.20832956523743335,0,0,70,0,0,0
540,27.033333333333335,1.3725570449953315,-2.089518403420674,-5.0,0.6564415665727064,0.43120151291902487,0,-0.1354659505203213,0.20622720030557892,0,0,70,0,0,0
541,27.083333333333336,1.4052084446303281,-2.0677014356864034,-5.0,0.6495875640169473,0.4414592526412979,0,-0.1386885144957142,0.20407395189789312,0,0,70,0,0,0
542,27.133333333333333,1.4375131301081945,-2.04537429356256,-5.0,0.6425732854497551,0.4516080688986772,0,-0.14187685915539575,0.2018703512962008,0,0,70,0,0,0
543,27.183333333333334,1.4694631307311825,-2.022542485937369,-5.0,0.6354004615394075,0.461645457622614,0,-0.14503019782303023,0.19961694220597667,0,0,70,0,0,0
544,27.233333333333334,1.5010505633147115,-1.9992116462177254,-5.0,0.6280708620728762,0.4715689422376318,0,-0.14814775245948536,0.19731428062219564,0,0,70,0,0,0
545,27.283333333333335,1.5322676341324426,-1.9753875309392253,-5.0,0.620586295519155,0.48137607427238943,0,-0.1512287538548033,0.1949629346921482,0,0,70,0,0,0
546,27.333333333333336,1.5631066408392638,-1.9510760183458236,-5.0,0.6129486085830463,0.49106443396380506,0,-0.154272441817992,0.19256348457525843,0,0,70,0,0,0
547,27.383333333333333,1.5935599743717237,-1.926283106939474,-5.0,0.6051596857495174,0.5006316308540945,0,-0.15727806536459005,0.19011652229993914,0,0,70,0,0,0
548,27.433333333333334,1.6236201208254597,-1.901014914000077,-5.0,0.5972214488187274,0.5100753043805837,0,-0.16024488290196193,0.18762265161751668,0,0,70,0,0,0
549,27.483333333333334,1.6532796633091298,-1.8752776740761488,-5.0,0.5891358564318583,0.5193931244581369,0,-0.1631721624122732,0.18508248785326573,0,0,70,0,0,0
550,27.533333333333335,1.6825312837744333,-1.8490777374465242,-5.0,0.5809049035878436,0.5285827920540764,0,-0.16605918163310676,0.18249665775458568,0,0,70,0,0,0
551,27.583333333333336,1.7113677648217216,-1.822421568553529,-5.0,0.5725306211511354,0.5376420397554306,0,-0.16890522823566922,0.1798657993363608,0,0,70,0,0,0
552,27.633333333333333,1.7397819914807853,-1.7953157444079724,-5.0,0.5640150753506177,0.5465686323283856,0,-0.1717096000005477,0.17719056172353942,0,0,70,0,0,0
553,27.683333333333334,1.7677669529663689,-1.7677669529663693,-5.0,0.555360367269796,0.5553603672697957,0,-0.17447160499097195,0.174471604990972,0,0,70,0,0,0
554,27.733333333333334,1.7953157444079713,-1.7397819914807864,-5.0,0.5465686323283858,0.5640150753506175,0,-0.17719056172353934,0.17170960000054777,0,0,70,0,0,0
555,27.783333333333335,1.8224215685535299,-1.7113677648217207,-5.0,0.5376420397554302,0.5725306211511356,0,-0.17986579933636088,0.1689052282356691,0,0,70,0,0,0
556,27.833333333333336,1.8490777374465246,-1.6825312837744328,-5.0,0.5285827920540762,0.580904903587844,0,-0.1824966577545858,0.16605918163310668,0,0,70,0,0,0
557,27.883333333333333,1.8752776740761483,-1.6532796633091307,-5.0,0.5193931244581371,0.5891358564318581,0,-0.18508248785326564,0.16317216241227328,0,0,70,0,0,0
558,27.933333333333334,1.9010149140000774,-1.6236201208254586,-5.0,0.5100753043805832,0.5972214488187276,0,-0.18762265161751673,0.16024488290196182,0,0,70,0,0,0
559,27.983333333333334,1.926283106939474,-1.5935599743717241,-5.0,0.5006316308540948,0.6051596857495172,0,-0.1901165222999391,0.15727806536459013,0,0,70,0,0,0
560,28.033333333333335,1.951076018345825,-1.5631066408392627,-5.0,0.4910644339638047,0.6129486085830467,0,-0.1925634845752585,0.15427244181799188,0,0,70,0,0,0
561,28.083333333333336,1.9753875309392255,-1.5322676341324413,-5.0,0.48137607427238904,0.6205862955191551,0,-0.19496293469214823,0.1512287538548032,0,0,70,0,0,0
562,28.133333333333333,1.9992116462177263,-1.5010505633147102,-5.0,0.47156894223763146,0.6280708620728765,0,-0.19731428062219572,0.14814775245948525,0,0,70,0,0,0
563,28.183333333333334,2.022542485937368,-1.4694631307311834,-5.0,0.46164545762261433,0.6354004615394073,0,-0.19961694220597662,0.14503019782303034,0,0,70,0,0,0
564,28.233333333333334,2.045374293562558,-1.437513130108197,-5.0,0.451608068898678,0.6425732854497546,0,-0.2018703512962006,0.141876859155396,0,0,70,0,0,0
565,28.283333333333335,2.067701435686404,-1.4052084446303272,-5.0,0.44145925264129754,0.6495875640169475,0,-0.20407395189789315,0.1386885144957141,0,0,70,0,0,0
566,28.333333333333336,2.0895184034206764,-1.3725570449953286,-5.0,0.431201512919024,0.656441566572707,0,-0.20622720030557917,0.13546595052032098,0,0,70,0,0,0
567,28.383333333333333,2.110819813755037,-1.3395669874474927,-5.0,0.42083738067564536,0.6631336019944599,0,-0.20832956523743332,0.13220996234865787,0,0,70,0,0,0
568,28.433333333333334,2.1316004108852296,-1.3062464117898736,-5.0,0.4103694131057095,0.6696620191226021,0,-0.21038052796636744,0.12892135334708518,0,0,70,0,0,0
569,28.483333333333334,2.1518550675098593,-1.272603539375928,-5.0,0.3998001930235785,0.6760252071678943,0,-0.21237958244801747,0.12560093493066554,0,0,70,0,0,0
570,28.533333333333335,2.1715787860954787,-1.2386466710810187,-5.0,0.3891323282261581,0.6822215961088995,0,-0.2143262354456022,0.12224952636295905,0,0,70,0,0,0
571,28.583333333333336,2.19076670010966,-1.2043841852542863,-5.0,0.3783684508494594,0.6882496570793661,0,-0.2162200066516231,0.11886795455388124,0,0,70,0,0,0
572,28.633333333333333,2.2094140752217335,-1.1698245356514338,-5.0,0.36751121671916354,0.6941079027454484,0,-0.21806042880637194,0.11545705385567706,0,0,70,0,0,0
573,28.683333333333334,2.2275163104709197,-1.1349762493488673,-5.0,0.3565633046953299,0.6997948876726883,0,-0.21984704781322117,0.11201766585705472,0,0,70,0,0,0
574,28.733333333333334,2.2450689394015386,-1.0998479246397885,-5.0,0.345527416011434,0.7053092086826502,0,-0.22157942285066443,0.10855063917553853,0,0,70,0,0,0
575,28.783333333333335,2.262067631165049,-1.0644482289126804,-5.0,0.33440627360787434,0.7106495051991384,0,-0.22325712648108348,0.10505682924808363,0,0,70,0,0,0
576,28.833333333333336,2.278508191588614,-1.0287858965127712,-5.0,0.3232026214601311,0.7158144595838952,0,-0.22487974475621134,0.10153709812001108,0,0,70,0,0,0
577,28.883333333333333,2.294386564209953,-0.9928697265869529,-5.0,0.31191922390172777,0.7208027974617113,0,-0.22644687731926838,0.09799231423230978,0,0,70,0,0,0
578,28.933333333333334,2.309698831278216,-0.956708580912726,-5.0,0.30055886494217365,0.7256132880348575,0,-0.22795813750374427,0.09442335220736195,0,0,70,0,0,0
579,28.983333333333334,2.324441214720629,-0.9203113817116947,-5.0,0.28912434758005323,0.7302447443867661,0,-0.2294131524288021,0.09083109263314369,0,0,70,0,0,0
580,29.033333333333335,2.3386100770746694,-0.8836871094481407,-5.0,0.27761849311142783,0.734696023774884,0,-0.23081156309128076,0.08721642184595302,0,0,70,0,0,0
581,29.083333333333336,2.3522019223855644,-0.8468448006132265,-5.0,0.26604414043372254,0.7389660279126278,0,-0.23215302445427416,0.0835802317117194,0,0,70,0,0,0
582,29.133333333333333,2.365213397068862,-0.809793545495376,-5.0,0.2544041453452705,0.7430537032403697,0,-0.23343720553226355,0.07992341940594919,0,0,70,0,0,0
583,29.183333333333334,2.377641290737884,-0.7725424859373691,-5.0,0.2427013798406835,0.7469580411853889,0,-0.23466378947278396,0.07624688719235971,0,0,70,0,0,0
584,29.233333333333334,2.3894825369958257,-0.7351008130807585,-5.0,0.23093873140223944,0.7506780784107188,0,-0.23583247363460166,0.07255154220026219,0,0,70,0,0,0
585,29.283333333333335,2.400734214192358,-0.6974777650980719,-5.0,0.21911910228743303,0.7542128970528377,0,-0.23694296966238698,0.068838296200739,0,0,70,0,0,0
586,29.333333333333336,2.4113935461444953,-0.6596826249134313,-5.0,0.2072454088128867,0.7575616249481386,0,-0.23799500355786185,0.06510806538167782,0,0,70,0,0,0
587,29.383333333333336,2.4214579028215777,-0.6217247179121362,-5.0,0.19532058063479535,0.7607234358481217,0,-0.23898831574740456,0.06136177012171659,0,0,70,0,0,0
588,29.433333333333334,2.430924800994191,-0.5836134096397629,-5.0,0.18334756002607697,0.7636975496232582,0,-0.23992266114609545,0.0576003347631537,0,0,70,0,0,0
589,29.483333333333334,2.439791904846869,-0.545358103491356,-5.0,0.17132930115041062,0.766483232455477,0,-0.2407978092181884,0.05382468738388033,0,0,70,0,0,0
590,29.533333333333335,2.448057026554414,-0.5069682383912811,-5.0,0.15926876933334078,0.769079797019222,0,-0.24161354403399174,0.05003575956839107,0,0,70,0,0,0
591,29.583333333333336,2.455718126821722,-0.4684532864643117,-5.0,0.14716894033062766,0.7714866026510409,0,-0.24236966432314577,0.04623448617792945,0,0,70,0,0,0
592,29.633333333333336,2.4627733153869347,-0.42982275069852205,-5.0,0.1350327995940234,0.7737030555076574,0,-0.24306598352428324,0.04242180511982467,0,0,70,0,0,0
593,29.683333333333334,2.4692208514878438,-0.3910861626005778,-5.0,0.12286334153465986,0.7757286087124945,0,-0.24370232983106038,0.03859865711607811,0,0,70,0,0,0
594,29.733333333333334,2.475059144291394,-0.3522530798439575,-5.0,0.11066356878421557,0.7775627624906083,0,-0.24427854623454803,0.03476598547125204,0,0,70,0,0,0
595,29.783333333333335,2.4802867532861947,-0.3133330839107595,-5.0,0.09843649145406762,0.7792050642919989,0,-0.2447944905619706,0.03092473583972533,0,0,70,0,0,0
596,29.833333333333336,2.4849023886379493,-0.27433577772761225,-5.0,0.0861851263925909,0.7806551089032711,0,-0.24525003551178565,0.02707585599236714,0,0,70,0,0,0
597,29.883333333333336,2.4889049115077,-0.2352707832962851,-5.0,0.07391249644079254,0.7819125385476144,0,-0.24564506868509317,0.023220295582687556,0,0,70,0,0,0
598,29.933333333333334,2.4922933343328193,-0.19614773931961188,-5.0,0.06162162968647385,0.7829770429730797,0,-0.24597949261336868,0.019359005912525696,0,0,70,0,0,0
599,29.983333333333334,2.4950668210706795,-0.15697629882328315,-5.0,0.04931555871709424,0.7838483595291283,0,-0.24625322478251208,0.015492939697329934,0,0,70,0,0,0
600,30.033333333333335,2.497224687404925,-0.1177661267741066,-5.0,0.036997319871525755,0.7845262732314381,0,-0.24646619765320643,0.011623050831089698,0,0,70,0,0,0
601,30.083333333333336,2.498766400914329,-0.0785268976953209,-5.0,0.02466995249088174,0.7850106168149464,0,-0.24661835867758278,0.007750294150976329,0,0,70,0,0,0
602,30.133333333333336,2.499691581204152,-0.03926829327954986,-5.0,0.012336498168604328,0.7853012707751216,0,-0.2467096703121851,0.0038756252017511294,0,0,70,0,0,0
603,30.183333333333334,2.499691581204152,-0.03926829327954986,-5.0,0,0,0,0,0,0,0,60,0,0,0
604,30.233333333333334,2.499691581204152,-0.03926829327954986,-5.0,0,0,0,0,0,0,0,60,0,0,0
605,30.283333333333335,2.499691581204152,-0.03926829327954986,-5.0,0,0,0,0,0,0,0,60,0,0,0
606,30.333333333333332,2.499691581204152,-0.03926829327954986,-5.0,0,0,0,0,0,0,0,60,0,0,0
607,30.383333333333333,2.499691581204152,-0.03926829327954986,-5.0,0,0,0,0,0,0,0,60,0,0,0
608,30.433333333333334,2.499691581204152,-0.03926829327954986,-5.0,0,0,0,0,0,0,0,60,0,0,0
609,30.483333333333334,2.499691581204152,-0.03926829327954986,-5.0,0,0,0,0,0,0,0,60,0,0,0
610,30.533333333333335,2.499691581204152,-0.03926829327954986,-5.0,0,0,0,0,0,0,0,60,0,0,0
611,30.583333333333332,2.499691581204152,-0.03926829327954986,-5.0,0,0,0,0,0,0,0,60,0,0,0
612,30.633333333333333,2.499691581204152,-0.03926829327954986,-5.0,0,0,0,0,0,0,0,60,0,0,0
613,30.683333333333334,2.499691581204152,-0.03926829327954986,-5.0,0,0,0,0,0,0,0,60,0,0,0
614,30.733333333333334,2.499691581204152,-0.03926829327954986,-5.0,0,0,0,0,0,0,0,60,0,0,0
615,30.783333333333335,2.499691581204152,-0.03926829327954986,-5.0,0,0,0,0,0,0,0,60,0,0,0
616,30.833333333333332,2.499691581204152,-0.03926829327954986,-5.0,0,0,0,0,0,0,0,60,0,0,0
617,30.883333333333333,2.499691581204152,-0.03926829327954986,-5.0,0,0,0,0,0,0,0,60,0,0,0
618,30.933333333333334,2.499691581204152,-0.03926829327954986,-5.0,0,0,0,0,0,0,0,60,0,0,0
619,30.983333333333334,2.499691581204152,-0.03926829327954986,-5.0,0,0,0,0,0,0,0,60,0,0,0
620,31.033333333333335,2.499691581204152,-0.03926829327954986,-5.0,0,0,0,0,0,0,0,60,0,0,0
621,31.083333333333332,2.499691581204152,-0.03926829327954986,-5.0,0,0,0,0,0,0,0,60,0,0,0
622,31.133333333333333,2.499691581204152,-0.03926829327954986,-5.0,0,0,0,0,0,0,0,60,0,0,0
623,31.183333333333334,2.499691581204152,-0.03926829327954986,-5.0,0,0,0,0,0,0,0,60,0,0,0
624,31.233333333333334,2.499691581204152,-0.03926829327954986,-5.0,0,0,0,0,0,0,0,60,0,0,0
625,31.283333333333335,2.499691581204152,-0.03926829327954986,-5.0,0,0,0,0,0,0,0,60,0,0,0
626,31.333333333333332,2.499691581204152,-0.03926829327954986,-5.0,0,0,0,0,0,0,0,60,0,0,0
627,31.383333333333333,2.499691581204152,-0.03926829327954986,-5.0,0,0,0,0,0,0,0,60,0,0,0
628,31.433333333333334,2.499691581204152,-0.03926829327954986,-5.0,0,0,0,0,0,0,0,60,0,0,0
629,31.483333333333334,2.499691581204152,-0.03926829327954986,-5.0,0,0,0,0,0,0,0,60,0,0,0
630,31.533333333333335,2.499691581204152,-0.03926829327954986,-5.0,0,0,0,0,0,0,0,60,0,0,0
631,31.583333333333332,2.499691581204152,-0.03926829327954986,-5.0,0,0,0,0,0,0,0,60,0,0,0
632,31.633333333333333,2.499691581204152,-0.03926829327954986,-5.0,0,0,0,0,0,0,0,60,0,0,0
633,31.683333333333334,2.499691581204152,-0.03926829327954986,-5.0,0,0,0,0,0,0,0,60,0,0,0
634,31.733333333333334,2.499691581204152,-0.03926829327954986,-5.0,0,0,0,0,0,0,0,60,0,0,0
635,31.783333333333335,2.499691581204152,-0.03926829327954986,-5.0,0,0,0,0,0,0,0,60,0,0,0
636,31.833333333333332,2.499691581204152,-0.03926829327954986,-5.0,0,0,0,0,0,0,0,60,0,0,0
637,31.883333333333333,2.499691581204152,-0.03926829327954986,-5.0,0,0,0,0,0,0,0,60,0,0,0
638,31.933333333333334,2.499691581204152,-0.03926829327954986,-5.0,0,0,0,0,0,0,0,60,0,0,0
639,31.983333333333334,2.499691581204152,-0.03926829327954986,-5.0,0,0,0,0,0,0,0,60,0,0,0
640,32.03333333333333,2.499691581204152,-0.03926829327954986,-5.0,0,0,0,0,0,0,0,60,0,0,0
641,32.083333333333336,2.499691581204152,-0.03926829327954986,-5.0,0,0,0,0,0,0,0,60,0,0,0
642,32.13333333333333,2.499691581204152,-0.03926829327954986,-5.0,0,0,0,0,0,0,0,60,0,0,0
643,32.18333333333334,2.499691581204152,-0.03926829327954986,-5.0,0,0,0,0,0,0,0,80,0,0,0
644,32.233333333333334,2.499691581204152,-0.03926829327954986,-5.0,0,0,0,0,0,0,0,80,0,0,0
645,32.28333333333334,2.499691581204152,-0.03926829327954986,-5.0,0,0,0,0,0,0,0,80,0,0,0
646,32.333333333333336,2.499691581204152,-0.03926829327954986,-5.0,0,0,0,0,0,0,0,80,0,0,0
647,32.38333333333334,2.499691581204152,-0.03926829327954986,-5.0,0,0,0,0,0,0,0,80,0,0,0
648,32.43333333333334,2.499691581204152,-0.03926829327954986,-5.0,0,0,0,0,0,0,0,80,0,0,0
649,32.483333333333334,2.499691581204152,-0.03926829327954986,-5.0,0,0,0,0,0,0,0,80,0,0,0
650,32.53333333333334,2.499691581204152,-0.03926829327954986,-5.0,0,0,0,0,0,0,0,80,0,0,0
651,32.583333333333336,2.499691581204152,-0.03926829327954986,-5.0,0,0,0,0,0,0,0,80,0,0,0
652,32.63333333333334,2.499691581204152,-0.03926829327954986,-5.0,0,0,0,0,0,0,0,80,0,0,0
653,32.68333333333334,2.499691581204152,-0.03926829327954986,-5.0,0,0,0,0,0,0,0,80,0,0,0
654,32.733333333333334,2.499691581204152,-0.03926829327954986,-5.0,0,0,0,0,0,0,0,80,0,0,0
655,32.78333333333334,2.499691581204152,-0.03926829327954986,-5.0,0,0,0,0,0,0,0,80,0,0,0
656,32.833333333333336,2.499691581204152,-0.03926829327954986,-5.0,0,0,0,0,0,0,0,80,0,0,0
657,32.88333333333334,2.499691581204152,-0.03926829327954986,-5.0,0,0,0,0,0,0,0,80,0,0,0
658,32.93333333333334,2.499691581204152,-0.03926829327954986,-5.0,0,0,0,0,0,0,0,80,0,0,0
659,32.983333333333334,2.499691581204152,-0.03926829327954986,-5.0,0,0,0,0,0,0,0,80,0,0,0
660,33.03333333333334,2.499691581204152,-0.03926829327954986,-5.0,0,0,0,0,0,0,0,80,0,0,0
661,33.083333333333336,2.499691581204152,-0.03926829327954986,-5.0,0,0,0,0,0,0,0,80,0,0,0
662,33.13333333333334,2.499691581204152,-0.03926829327954986,-5.0,0,0,0,0,0,0,0,80,0,0,0
663,33.18333333333334,2.499691581204152,-0.03926829327954986,-5.0,0,0,0,0,0,0,0,80,0,0,0
664,33.233333333333334,2.499691581204152,-0.03926829327954986,-5.0,0,0,0,0,0,0,0,80,0,0,0
665,33.28333333333334,2.499691581204152,-0.03926829327954986,-5.0,0,0,0,0,0,0,0,80,0,0,0
666,33.333333333333336,2.499691581204152,-0.03926829327954986,-5.0,0,0,0,0,0,0,0,80,0,0,0
667,33.38333333333334,2.499691581204152,-0.03926829327954986,-5.0,0,0,0,0,0,0,0,80,0,0,0
668,33.43333333333334,2.499691581204152,-0.03926829327954986,-5.0,0,0,0,0,0,0,0,80,0,0,0
669,33.483333333333334,2.499691581204152,-0.03926829327954986,-5.0,0,0,0,0,0,0,0,80,0,0,0
670,33.53333333333334,2.499691581204152,-0.03926829327954986,-5.0,0,0,0,0,0,0,0,80,0,0,0
671,33.583333333333336,2.499691581204152,-0.03926829327954986,-5.0,0,0,0,0,0,0,0,80,0,0,0
672,33.63333333333334,2.499691581204152,-0.03926829327954986,-5.0,0,0,0,0,0,0,0,80,0,0,0
673,33.68333333333334,2.499691581204152,-0.03926829327954986,-5.0,0,0,0,0,0,0,0,80,0,0,0
674,33.733333333333334,2.499691581204152,-0.03926829327954986,-5.0,0,0,0,0,0,0,0,80,0,0,0
675,33.78333333333334,2.499691581204152,-0.03926829327954986,-5.0,0,0,0,0,0,0,0,80,0,0,0
676,33.833333333333336,2.499691581204152,-0.03926829327954986,-5.0,0,0,0,0,0,0,0,80,0,0,0
677,33.88333333333334,2.499691581204152,-0.03926829327954986,-5.0,0,0,0,0,0,0,0,80,0,0,0
678,33.93333333333334,2.499691581204152,-0.03926829327954986,-5.0,0,0,0,0,0,0,0,80,0,0,0
679,33.983333333333334,2.499691581204152,-0.03926829327954986,-5.0,0,0,0,0,0,0,0,80,0,0,0
680,34.03333333333334,2.499691581204152,-0.03926829327954986,-5.0,0,0,0,0,0,0,0,80,0,0,0
681,34.083333333333336,2.499691581204152,-0.03926829327954986,-5.0,0,0,0,0,0,0,0,80,0,0,0
682,34.13333333333334,2.499691581204152,-0.03926829327954986,-5.0,0,0,0,0,0,0,0,80,0,0,0
683,34.18333333333334,2.499691581204152,-0.03926829327954986,-5.0,-1.4998149487224908,0.023560975967729908,0.0,0,0,0,0,90,0,0,0
684,34.233333333333334,2.4239433514706925,-0.03807834499835138,-5.0,-1.4998149487224908,0.023560975967729908,0.0,0,0,0,0,90,0,0,0
685,34.28333333333334,2.3481951217372337,-0.036888396717152896,-5.0,-1.4998149487224908,0.023560975967729908,0.0,0,0,0,0,90,0,0,0
686,34.333333333333336,2.2724468920037744,-0.03569844843595442,-5.0,-1.4998149487224908,0.023560975967729908,0.0,0,0,0,0,90,0,0,0
687,34.38333333333334,2.196698662270315,-0.034508500154755935,-5.0,-1.4998149487224908,0.023560975967729908,0.0,0,0,0,0,90,0,0,0
688,34.43333333333334,2.1209504325368562,-0.03331855187355746,-5.0,-1.4998149487224908,0.023560975967729908,0.0,0,0,0,0,90,0,0,0
689,34.483333333333334,2.045202202803397,-0.03212860359235897,-5.0,-1.4998149487224908,0.023560975967729908,0.0,0,0,0,0,90,0,0,0
690,34.53333333333334,1.9694539730699376,-0.030938655311160496,-5.0,-1.4998149487224908,0.023560975967729908,0.0,0,0,0,0,90,0,0,0
691,34.583333333333336,1.8937057433364788,-0.02974870702996201,-5.0,-1.4998149487224908,0.023560975967729908,0.0,0,0,0,0,90,0,0,0
692,34.63333333333334,1.8179575136030195,-0.028558758748763534,-5.0,-1.4998149487224908,0.023560975967729908,0.0,0,0,0,0,90,0,0,0
693,34.68333333333334,1.7422092838695602,-0.027368810467565053,-5.0,-1.4998149487224908,0.023560975967729908,0.0,0,0,0,0,90,0,0,0
694,34.733333333333334,1.6664610541361013,-0.026178862186366572,-5.0,-1.4998149487224908,0.023560975967729908,0.0,0,0,0,0,90,0,0,0
695,34.78333333333334,1.590712824402642,-0.02498891390516809,-5.0,-1.4998149487224908,0.023560975967729908,0.0,0,0,0,0,90,0,0,0
696,34.833333333333336,1.514964594669183,-0.02379896562396961,-5.0,-1.4998149487224908,0.023560975967729908,0.0,0,0,0,0,90,0,0,0
697,34.88333333333334,1.4392163649357237,-0.02260901734277113,-5.0,-1.4998149487224908,0.023560975967729908,0.0,0,0,0,0,90,0,0,0
698,34.93333333333334,1.3634681352022646,-0.021419069061572652,-5.0,-1.4998149487224908,0.023560975967729908,0.0,0,0,0,0,90,0,0,0
699,34.983333333333334,1.2877199054688055,-0.020229120780374168,-5.0,-1.4998149487224908,0.023560975967729908,0.0,0,0,0,0,90,0,0,0
700,35.03333333333334,1.2119716757353463,-0.01903917249917569,-5.0,-1.4998149487224908,0.023560975967729908,0.0,0,0,0,0,90,0,0,0
701,35.083333333333336,1.1362234460018872,-0.01784922421797721,-5.0,-1.4998149487224908,0.023560975967729908,0.0,0,0,0,0,90,0,0,0
702,35.13333333333334,1.060475216268428,-0.016659275936778725,-5.0,-1.4998149487224908,0.023560975967729908,0.0,0,0,0,0,90,0,0,0
703,35.18333333333334,0.9847269865349688,-0.015469327655580248,-5.0,-1.4998149487224908,0.023560975967729908,0.0,0,0,0,0,90,0,0,0
704,35.233333333333334,0.9089787568015097,-0.014279379374381767,-5.0,-1.4998149487224908,0.023560975967729908,0.0,0,0,0,0,90,0,0,0
705,35.28333333333334,0.8332305270680507,-0.013089431093183286,-5.0,-1.4998149487224908,0.023560975967729908,0.0,0,0,0,0,90,0,0,0
706,35.333333333333336,0.7574822973345914,-0.011899482811984805,-5.0,-1.4998149487224908,0.023560975967729908,0.0,0,0,0,0,90,0,0,0
707,35.38333333333334,0.6817340676011323,-0.010709534530786324,-5.0,-1.4998149487224908,0.023560975967729908,0.0,0,0,0,0,90,0,0,0
708,35.43333333333334,0.6059858378676732,-0.009519586249587843,-5.0,-1.4998149487224908,0.023560975967729908,0.0,0,0,0,0,90,0,0,0
709,35.483333333333334,0.5302376081342142,-0.008329637968389366,-5.0,-1.4998149487224908,0.023560975967729908,0.0,0,0,0,0,90,0,0,0
710,35.53333333333334,0.4544893784007549,-0.007139689687190878,-5.0,-1.4998149487224908,0.023560975967729908,0.0,0,0,0,0,90,0,0,0
711,35.583333333333336,0.3787411486672956,-0.005949741405992401,-5.0,-1.4998149487224908,0.023560975967729908,0.0,0,0,0,0,90,0,0,0
712,35.63333333333334,0.30299291893383673,-0.0047597931247939235,-5.0,-1.4998149487224908,0.023560975967729908,0.0,0,0,0,0,90,0,0,0
713,35.68333333333334,0.22724468920037744,-0.003569844843595446,-5.0,-1.4998149487224908,0.023560975967729908,0.0,0,0,0,0,90,0,0,0
714,35.733333333333334,0.15149645946691814,-0.0023798965623969617,-5.0,-1.4998149487224908,0.023560975967729908,0.0,0,0,0,0,90,0,0,0
715,35.78333333333334,0.0757482297334593,-0.0011899482811984774,-5.0,-1.4998149487224908,0.023560975967729908,0.0,0,0,0,0,90,0,0,0
